time,seconds_elapsed,z,y,x
1707663721353532400,0.065532470703125,6.592226505279541,6.096911907196045,1.5936198234558105
1707663721370378800,0.082378662109375,8.453842163085938,4.381258487701416,-0.32542386651039124
1707663721387224800,0.099224853515625,7.444071292877197,3.0173492431640625,-0.32303106784820557
1707663721404071200,0.1160712890625,9.05444049835205,3.7328033447265625,-0.040677983313798904
1707663721420917200,0.132917236328125,10.13599681854248,3.596412420272827,0.31345975399017334
1707663721437763600,0.149763671875,11.23908805847168,3.3308091163635254,-0.007178467698395252
1707663721454610000,0.16660986328125,11.270195007324219,3.187239646911621,-1.0336993932724
1707663721471456300,0.183456298828125,11.088339805603027,3.1034910678863525,-1.643869161605835
1707663721488302300,0.20030224609375,11.298908233642578,3.2518460750579834,-1.4524433612823486
1707663721505148700,0.217148681640625,11.035697937011719,3.445664644241333,-1.5744773149490356
1707663721521995000,0.2339951171875,9.504291534423828,2.8139593601226807,-2.2683959007263184
1707663721538841300,0.25084130859375,8.58066177368164,4.455435752868652,-2.6967110633850098
1707663721555687400,0.2676875,8.549555778503418,4.847858905792236,-0.7034898400306702
1707663721572533800,0.28453369140625,8.350951194763184,5.0703911781311035,-0.5599204897880554
1707663721589380000,0.301380126953125,7.7455668449401855,5.498706340789795,-0.22971096634864807
1707663721606226200,0.31822607421875,7.915457248687744,5.7786664962768555,-0.5886343717575073
1707663721623072500,0.335072509765625,8.549555778503418,6.271588325500488,-1.4763715267181396
1707663721639918800,0.3519189453125,8.039883613586426,7.295716285705566,-2.400001049041748
1707663721656765200,0.36876513671875,6.927221775054932,8.011170387268066,-1.9525432586669922
1707663721673611500,0.385611572265625,6.03948450088501,8.087740898132324,-1.337587833404541
1707663721690457600,0.40245751953125,6.479763507843018,8.420342445373535,-1.7371892929077148
1707663721707304000,0.419303955078125,8.50169849395752,8.901300430297852,-1.2490534782409668
1707663721724150300,0.436150390625,8.070990562438965,8.37966537475586,-0.08853443711996078
1707663721740996600,0.45299658203125,7.5086774826049805,7.221538543701172,0.8590233325958252
1707663721757843000,0.469843017578125,8.288737297058105,6.307480335235596,0.038285162299871445
1707663721774689000,0.48668896484375,7.278966426849365,6.781259536743164,-2.837887763977051
1707663721791535400,0.503535400390625,7.089933395385742,8.171489715576172,-5.13739013671875
1707663721808381700,0.520381591796875,7.044469833374023,8.13081169128418,-4.835894584655762
1707663721825228000,0.53722802734375,4.874179840087891,7.137789726257324,-4.204189300537109
1707663721842074400,0.554074462890625,3.871587038040161,7.066005229949951,-2.902493953704834
1707663721858920700,0.570920654296875,2.2133610248565674,7.066005229949951,-0.794417142868042
1707663721875766800,0.587766845703125,4.101297855377197,7.319644451141357,-0.5814558863639832
1707663721892613000,0.604613037109375,5.79780912399292,7.1234331130981445,-2.53399920463562
1707663721909459500,0.62145947265625,4.800002098083496,5.795416355133057,-2.8115665912628174
1707663721926305800,0.638305908203125,4.106083869934082,6.276373863220215,-3.9672999382019043
1707663721943152000,0.655152099609375,4.1970109939575195,6.57547664642334,-2.5674986839294434
1707663721959998500,0.67199853515625,4.024727821350098,6.56829833984375,-1.6366907358169556
1707663721976844800,0.6888447265625,4.326223373413086,6.704689025878906,-1.8376877307891846
1707663721993691100,0.705691162109375,3.5988051891326904,7.922635555267334,-2.282752752304077
1707663722010537500,0.722537353515625,2.053041934967041,8.470592498779297,-2.5674986839294434
1707663722027383600,0.739383544921875,-0.5072783827781677,8.061419486999512,-2.5531418323516846
1707663722044230000,0.75622998046875,0.5024927258491516,7.558926582336426,-1.521835207939148
1707663722061076200,0.773076171875,2.2947168350219727,6.3840508460998535,-0.7896314859390259
1707663722077922600,0.789922607421875,2.0315065383911133,6.491727828979492,-1.1748759746551514
1707663722094769000,0.806768798828125,1.4620146751403809,7.381857872009277,-1.3543375730514526
1707663722111615200,0.823615234375,2.9838497638702393,8.48734188079834,0.0933200865983963
1707663722128461600,0.840461669921875,2.266003131866455,9.229117393493652,0.8973084688186646
1707663722145308000,0.857307861328125,1.94297194480896,7.927421569824219,-0.7058826684951782
1707663722162154200,0.874154296875,2.8594231605529785,6.300302028656006,-2.744567632675171
1707663722179000600,0.89100048828125,2.974278450012207,6.4319071769714355,0.0526420995593071
1707663722195847000,0.907846923828125,4.034298896789551,7.128218650817871,-0.45224347710609436
1707663722212693200,0.924693359375,3.431307554244995,9.755537986755371,-2.4981069564819336
1707663722229539600,0.94153955078125,1.6007983684539795,9.533005714416504,-4.1491546630859375
1707663722246386000,0.958385986328125,3.4648072719573975,7.802994728088379,-3.88594388961792
1707663722263232300,0.975232177734375,4.867001056671143,8.075776100158691,-2.8354947566986084
1707663722280078600,0.99207861328125,3.869194269180298,9.856036186218262,-2.0673987865448
1707663722296925000,1.008925048828125,3.696911096572876,9.810572624206543,-2.3569302558898926
1707663722313771300,1.025771240234375,4.677968502044678,9.257830619812012,-2.8187451362609863
1707663722330617600,1.04261767578125,4.8502516746521,9.743574142456055,-2.9766714572906494
1707663722347464000,1.0594638671875,5.13739013671875,11.638689041137695,-0.9260223507881165
1707663722364310300,1.076310302734375,3.8979079723358154,12.002398490905762,-0.9978070259094238
1707663722381156600,1.093156494140625,3.7184464931488037,11.578868865966797,-1.8305093050003052
1707663722398003000,1.1100029296875,3.7160534858703613,11.13619613647461,-1.4333007335662842
1707663722414849300,1.126849365234375,4.0558342933654785,10.829915046691895,-1.0097711086273193
1707663722431695600,1.143695556640625,3.78544545173645,10.650453567504883,-1.1772687435150146
1707663722448542000,1.1605419921875,3.792623996734619,10.126425743103027,-1.6773686408996582
1707663722465388300,1.17738818359375,4.1659040451049805,9.90149974822998,-1.6271194219589233
1707663722482235000,1.19423486328125,3.7567315101623535,9.442078590393066,-1.5146567821502686
1707663722499081200,1.211081298828125,3.7016966342926025,9.315258979797363,-0.8542376756668091
1707663722515927600,1.227927490234375,3.510270833969116,8.427521705627441,-0.3900300860404968
1707663722532774000,1.24477392578125,3.9361932277679443,7.960920810699463,-0.7585247755050659
1707663722549620200,1.2616201171875,3.4121651649475098,8.61894702911377,-0.6173482537269592
1707663722566466600,1.278466552734375,3.617947816848755,9.31047248840332,0.016749758273363113
1707663722583313000,1.29531298828125,3.9194436073303223,10.415956497192383,0.29431718587875366
1707663722600159200,1.3121591796875,3.7782669067382812,10.61695384979248,0.019142581149935722
1707663722617005800,1.329005859375,3.950550079345703,9.09272575378418,-0.6867401003837585
1707663722633852200,1.34585205078125,3.507878065109253,9.4061861038208,0.18424734473228455
1707663722650698500,1.362698486328125,4.098905086517334,8.331808090209961,-0.8422735929489136
1707663722667544800,1.379544921875,3.4169507026672363,8.367700576782227,-0.3038884699344635
1707663722684391200,1.39639111328125,3.280559778213501,9.231510162353516,-0.275174617767334
1707663722701237500,1.413237548828125,4.063013076782227,9.985248565673828,0.27756741642951965
1707663722718084000,1.430083984375,3.6442689895629883,11.782258987426758,0.04785645380616188
1707663722734930400,1.446930419921875,3.8356947898864746,9.559326171875,-0.34695929288864136
1707663722751776800,1.46377685546875,3.594019651412964,9.004191398620605,0.33499518036842346
1707663722768623000,1.480623046875,3.22552490234375,8.934800148010254,0.4331009089946747
1707663722785469400,1.497469482421875,3.170490026473999,9.360722541809082,-0.8781659007072449
1707663722802316000,1.51431591796875,2.9144580364227295,8.824729919433594,-0.7752745151519775
1707663722819162400,1.531162353515625,3.2781670093536377,9.152546882629395,0.4618147611618042
1707663722836008700,1.5480087890625,2.981456995010376,8.798408508300781,0.26081767678260803
1707663722852855000,1.56485498046875,3.314059257507324,8.140382766723633,-0.3684946894645691
1707663722869701400,1.581701416015625,3.160918712615967,8.116454124450684,-0.698704183101654
1707663722886548000,1.5985478515625,3.4552359580993652,8.384450912475586,0.15314064919948578
1707663722903394300,1.615394287109375,2.280359983444214,9.212367057800293,0.3397808074951172
1707663722920240600,1.63224072265625,3.266202926635742,9.19561767578125,-2.0817556381225586
1707663722937087000,1.6490869140625,2.744567632675171,10.001998901367188,-0.698704183101654
1707663722953933600,1.66593359375,3.6442689895629883,9.21715259552002,0.4666004180908203
1707663722970780000,1.68277978515625,3.014956474304199,9.365508079528809,0.3900300860404968
1707663722987626200,1.699626220703125,3.5916268825531006,9.322437286376953,0.5096712112426758
1707663723004472600,1.71647265625,2.8187451362609863,9.040083885192871,0.11964113265275955
1707663723021319200,1.733319091796875,2.9048867225646973,9.418149948120117,0.33020952343940735
1707663723038165500,1.75016552734375,3.5581271648406982,9.291330337524414,0.5575276613235474
1707663723055011800,1.76701171875,3.730410575866699,8.695517539978027,-0.5383850932121277
1707663723071858400,1.7838583984375,3.7543387413024902,7.8795647621154785,-1.215553879737854
1707663723088704800,1.800704833984375,3.5581271648406982,8.62612533569336,-0.6747759580612183
1707663723105551000,1.817551025390625,3.06999135017395,9.18843936920166,0.36610186100006104
1707663723122397700,1.834397705078125,3.1274192333221436,9.133403778076172,0.6867401003837585
1707663723139244000,1.851244140625,3.431307554244995,8.693124771118164,0.9020941257476807
1707663723156090400,1.86809033203125,3.0556344985961914,8.86062240600586,0.4139583110809326
1707663723172937000,1.88493701171875,3.3547372817993164,9.154939651489258,0.29431718587875366
1707663723189783300,1.901783203125,3.273381471633911,9.107083320617676,0.5072783827781677
1707663723206629600,1.918629638671875,2.9599215984344482,8.781659126281738,0.43549370765686035
1707663723223476200,1.935476318359375,3.8572301864624023,8.46580696105957,0.42352959513664246
1707663723240322600,1.952322509765625,3.6945180892944336,9.17886734008789,0.13160525262355804
1707663723257169000,1.9691689453125,3.649054527282715,9.659825325012207,0.5431707501411438
1707663723274015500,1.986015380859375,3.4552359580993652,9.243474006652832,0.849452018737793
1707663723290861800,2.00286181640625,3.7782669067382812,9.487542152404785,0.7704889178276062
1707663723307708200,2.019708251953125,3.9601213932037354,9.245866775512695,0.46899324655532837
1707663723324554800,2.0365546875,3.046063184738159,9.090332984924316,0.02153540402650833
1707663723341401000,2.053401123046875,3.263810157775879,9.035298347473145,0.20817556977272034
1707663723358247700,2.07024755859375,3.335594654083252,8.96112060546875,0.1986042857170105
1707663723375094000,2.087093994140625,3.2135608196258545,8.870193481445312,0.19142581522464752
1707663723391940400,2.1039404296875,3.4719855785369873,8.788837432861328,0.21296121180057526
1707663723408787000,2.120786865234375,4.1659040451049805,8.702695846557617,0.24885354936122894
1707663723425633300,2.13763330078125,4.177868366241455,8.827122688293457,0.2273181527853012
1707663723442479900,2.15447998046875,4.450650215148926,8.874979019165039,-0.08135596662759781
1707663723459326200,2.171326171875,4.06540584564209,8.827122688293457,-0.12203395366668701
1707663723476172800,2.1881728515625,3.9864425659179688,8.719446182250977,-0.3565305769443512
1707663723493019100,2.20501904296875,3.7806596755981445,8.851051330566406,-0.33020952343940735
1707663723509865700,2.22186572265625,3.830909013748169,8.910871505737305,-0.349352091550827
1707663723526712000,2.238712158203125,3.926621913909912,8.896514892578125,-0.1459621787071228
1707663723543558700,2.25555859375,3.730410575866699,8.774480819702148,-0.06939185410737991
1707663723560405000,2.272405029296875,3.8213376998901367,8.72901725769043,0.040677983313798904
1707663723577251600,2.28925146484375,4.278367042541504,8.745766639709473,-0.04307080805301666
1707663723594098000,2.306097900390625,5.132604598999023,8.740981101989746,-0.13160525262355804
1707663723610944500,2.322944580078125,5.170889854431152,8.642875671386719,-0.24167509377002716
1707663723627790800,2.339790771484375,4.364508628845215,8.676374435424805,0.009571290574967861
1707663723644637400,2.356637451171875,4.388436794281006,8.685946464538574,-0.016749758273363113
1707663723661483800,2.37348388671875,4.254438877105713,8.731410026550293,-0.1698904037475586
1707663723678330400,2.390330322265625,4.4410786628723145,8.724231719970703,-0.06939185410737991
1707663723695176700,2.4071767578125,4.252045631408691,8.578269004821777,-0.22492532432079315
1707663723712023300,2.424023193359375,3.414557933807373,8.681160926818848,-0.11485548317432404
1707663723728870000,2.440869873046875,2.297109842300415,8.767302513122559,0.2392822653055191
1707663723745716200,2.45771630859375,5.084748268127441,8.583054542541504,-0.02392822690308094
1707663723762562800,2.474562744140625,5.682953834533691,8.63330364227295,-0.13160525262355804
1707663723779409200,2.4914091796875,3.572484254837036,8.724231719970703,0.07417750358581543
1707663723796255700,2.508255859375,3.4480574131011963,8.70508861541748,0.03349951654672623
1707663723813102300,2.525102294921875,4.847858905792236,8.6907320022583,-0.02392822690308094
1707663723829948700,2.54194873046875,4.364508628845215,8.688339233398438,-0.038285162299871445
1707663723846795300,2.558795166015625,3.634697675704956,8.700303077697754,-0.01196411345154047
1707663723863641900,2.575641845703125,4.3310089111328125,8.71226692199707,-0.02871387079358101
1707663723880488200,2.59248828125,4.479363918304443,8.709874153137207,-0.02153540402650833
1707663723897334800,2.609334716796875,3.957728624343872,8.702695846557617,-0.0023928226437419653
1707663723914181400,2.626181396484375,4.130012035369873,8.707481384277344,-0.02871387079358101
1707663723931027700,2.64302783203125,4.393222332000732,8.6907320022583,-0.04546362906694412
1707663723947874300,2.659874267578125,4.170690059661865,8.700303077697754,-0.04546362906694412
1707663723964721000,2.676720947265625,4.101297855377197,8.683553695678711,-0.03349951654672623
1707663723981567200,2.693567138671875,4.302295207977295,8.683553695678711,-0.040677983313798904
1707663723998413800,2.710413818359375,4.2209391593933105,8.685946464538574,-0.038285162299871445
1707663724015260400,2.727260498046875,4.137190341949463,8.678768157958984,-0.038285162299871445
1707663724032107000,2.74410693359375,4.2209391593933105,8.676374435424805,-0.040677983313798904
1707663724048953300,2.760953369140625,4.223331928253174,8.688339233398438,-0.04307080805301666
1707663724065800000,2.777800048828125,4.139583110809326,8.683553695678711,-0.04546362906694412
1707663724082646500,2.794646484375,4.187439441680908,8.681160926818848,-0.04307080805301666
1707663724099493000,2.8114931640625,4.216153621673584,8.700303077697754,-0.035892341285943985
1707663724116339500,2.82833935546875,4.177868366241455,8.685946464538574,-0.04546362906694412
1707663724133186000,2.84518603515625,4.163511276245117,8.700303077697754,-0.05024927482008934
1707663724150032600,2.86203271484375,4.18983268737793,8.702695846557617,-0.031106693670153618
1707663724166879200,2.878879150390625,4.185046672821045,8.69791030883789,-0.04785645380616188
1707663724183725600,2.8957255859375,4.168296813964844,8.709874153137207,-0.035892341285943985
1707663724200572200,2.912572265625,4.208974838256836,8.700303077697754,-0.031106693670153618
1707663724217418800,2.929418701171875,4.18983268737793,8.695517539978027,-0.035892341285943985
1707663724234265300,2.946265380859375,4.180261135101318,8.709874153137207,-0.02153540402650833
1707663724251112000,2.96311181640625,4.194618225097656,8.6907320022583,-0.031106693670153618
1707663724267958300,2.979958251953125,4.211368083953857,8.6907320022583,-0.03349951654672623
1707663724284804900,2.996804931640625,4.187439441680908,8.688339233398438,-0.040677983313798904
1707663724301651500,3.0136513671875,4.199403762817383,8.685946464538574,-0.02392822690308094
1707663724318498000,3.030498046875,4.201796531677246,8.6907320022583,-0.02392822690308094
1707663724335344600,3.0473447265625,4.192225456237793,8.688339233398438,-0.019142581149935722
1707663724352191200,3.064191162109375,4.206582069396973,8.6907320022583,-0.035892341285943985
1707663724369037600,3.08103759765625,4.187439441680908,8.693124771118164,-0.02871387079358101
1707663724385884200,3.09788427734375,4.18983268737793,8.688339233398438,-0.038285162299871445
1707663724402730800,3.114730712890625,4.18983268737793,8.688339233398438,-0.038285162299871445
1707663724419577300,3.131577392578125,4.187439441680908,8.702695846557617,-0.02392822690308094
1707663724436424000,3.148423828125,4.1970109939575195,8.700303077697754,-0.038285162299871445
1707663724453270500,3.1652705078125,4.185046672821045,8.70508861541748,-0.031106693670153618
1707663724470117000,3.1821171875,4.204189300537109,8.70508861541748,-0.04546362906694412
1707663724486963700,3.198963623046875,4.182653903961182,8.688339233398438,-0.035892341285943985
1707663724503810300,3.215810302734375,4.185046672821045,8.695517539978027,-0.03349951654672623
1707663724520657000,3.232656982421875,4.18983268737793,8.69791030883789,-0.038285162299871445
1707663724537503500,3.24950341796875,4.1970109939575195,8.702695846557617,-0.038285162299871445
1707663724554350000,3.26635009765625,4.192225456237793,8.69791030883789,-0.038285162299871445
1707663724571196400,3.283196533203125,4.192225456237793,8.6907320022583,-0.035892341285943985
1707663724588043300,3.300043212890625,4.194618225097656,8.688339233398438,-0.038285162299871445
1707663724604889600,3.3168896484375,4.192225456237793,8.695517539978027,-0.031106693670153618
1707663724621736400,3.333736328125,4.206582069396973,8.695517539978027,-0.038285162299871445
1707663724638582800,3.350582763671875,4.213760852813721,8.685946464538574,-0.03349951654672623
1707663724655429600,3.3674296875,4.208974838256836,8.688339233398438,-0.04546362906694412
1707663724672276000,3.38427587890625,4.204189300537109,8.688339233398438,-0.02871387079358101
1707663724689122600,3.40112255859375,4.206582069396973,8.695517539978027,-0.02871387079358101
1707663724705969400,3.417969482421875,4.216153621673584,8.700303077697754,-0.035892341285943985
1707663724722815700,3.434815673828125,4.194618225097656,8.693124771118164,-0.03349951654672623
1707663724739662600,3.45166259765625,4.1970109939575195,8.6907320022583,-0.031106693670153618
1707663724756509000,3.468509033203125,4.199403762817383,8.693124771118164,-0.02392822690308094
1707663724773355800,3.485355712890625,4.18983268737793,8.693124771118164,-0.02153540402650833
1707663724790202400,3.502202392578125,4.194618225097656,8.695517539978027,-0.031106693670153618
1707663724807049000,3.519049072265625,4.180261135101318,8.685946464538574,-0.031106693670153618
1707663724823895600,3.5358955078125,4.185046672821045,8.681160926818848,-0.02871387079358101
1707663724840742100,3.5527421875,4.18983268737793,8.693124771118164,-0.02871387079358101
1707663724857588700,3.569588623046875,4.192225456237793,8.685946464538574,-0.035892341285943985
1707663724874435300,3.586435302734375,4.194618225097656,8.695517539978027,-0.02871387079358101
1707663724891282000,3.603281982421875,4.18983268737793,8.688339233398438,-0.038285162299871445
1707663724908128500,3.62012841796875,4.187439441680908,8.700303077697754,-0.035892341285943985
1707663724924975000,3.63697509765625,4.201796531677246,8.683553695678711,-0.02392822690308094
1707663724941821700,3.65382177734375,4.18983268737793,8.688339233398438,-0.04307080805301666
1707663724958668500,3.67066845703125,4.1970109939575195,8.693124771118164,-0.040677983313798904
1707663724975515100,3.68751513671875,4.206582069396973,8.695517539978027,-0.031106693670153618
1707663724992361700,3.70436181640625,4.201796531677246,8.69791030883789,-0.04546362906694412
1707663725009208300,3.721208251953125,4.204189300537109,8.695517539978027,-0.040677983313798904
1707663725026055000,3.738054931640625,4.201796531677246,8.69791030883789,-0.0526420995593071
1707663725042901500,3.754901611328125,4.192225456237793,8.685946464538574,-0.031106693670153618
1707663725059748400,3.771748291015625,4.204189300537109,8.685946464538574,-0.038285162299871445
1707663725076595000,3.788594970703125,4.204189300537109,8.693124771118164,-0.03349951654672623
1707663725093441500,3.805441650390625,4.1970109939575195,8.6907320022583,-0.038285162299871445
1707663725110288100,3.8222880859375,4.18983268737793,8.700303077697754,-0.05024927482008934
1707663725127134700,3.839134765625,4.204189300537109,8.6907320022583,-0.04307080805301666
1707663725143981300,3.855981201171875,4.1970109939575195,8.6907320022583,-0.031106693670153618
1707663725160828200,3.872828125,4.199403762817383,8.695517539978027,-0.02153540402650833
1707663725177674800,3.8896748046875,4.206582069396973,8.702695846557617,-0.040677983313798904
1707663725194521300,3.906521240234375,4.18983268737793,8.688339233398438,-0.02871387079358101
1707663725211368000,3.923367919921875,4.194618225097656,8.685946464538574,-0.03349951654672623
1707663725228214800,3.94021484375,4.192225456237793,8.6907320022583,-0.03349951654672623
1707663725245061400,3.957061279296875,4.201796531677246,8.688339233398438,-0.02392822690308094
1707663725261908000,3.973907958984375,4.18983268737793,8.685946464538574,-0.03349951654672623
1707663725278754600,3.990754638671875,4.18983268737793,8.681160926818848,-0.02871387079358101
1707663725295601400,4.007601318359375,4.204189300537109,8.6907320022583,-0.03349951654672623
1707663725312448000,4.024447998046875,4.204189300537109,8.6907320022583,-0.02392822690308094
1707663725329294600,4.041294677734375,4.18983268737793,8.695517539978027,-0.03349951654672623
1707663725346141200,4.05814111328125,4.216153621673584,8.6907320022583,-0.035892341285943985
1707663725362988000,4.074988037109375,4.199403762817383,8.69791030883789,-0.040677983313798904
1707663725379834600,4.091834716796875,4.201796531677246,8.688339233398438,-0.035892341285943985
1707663725396681200,4.10868115234375,4.199403762817383,8.693124771118164,-0.03349951654672623
1707663725413528000,4.125528076171875,4.194618225097656,8.695517539978027,-0.04546362906694412
1707663725430374700,4.142374755859375,4.206582069396973,8.714659690856934,-0.03349951654672623
1707663725447221500,4.159221435546875,4.201796531677246,8.693124771118164,-0.040677983313798904
1707663725464068000,4.176068115234375,4.201796531677246,8.6907320022583,-0.040677983313798904
1707663725480914700,4.192914794921875,4.182653903961182,8.688339233398438,-0.035892341285943985
1707663725497761300,4.20976123046875,4.194618225097656,8.6907320022583,-0.031106693670153618
1707663725514608000,4.226608154296875,4.206582069396973,8.685946464538574,-0.040677983313798904
1707663725531454700,4.243454833984375,4.194618225097656,8.6907320022583,-0.04307080805301666
1707663725548301600,4.260301513671875,4.18983268737793,8.685946464538574,-0.04785645380616188
1707663725565148200,4.277148193359375,4.199403762817383,8.685946464538574,-0.04307080805301666
1707663725581994800,4.293994873046875,4.1970109939575195,8.685946464538574,-0.02871387079358101
1707663725598841600,4.310841552734375,4.201796531677246,8.683553695678711,-0.038285162299871445
1707663725615688200,4.327688232421875,4.192225456237793,8.695517539978027,-0.03349951654672623
1707663725632535000,4.34453515625,4.194618225097656,8.676374435424805,-0.040677983313798904
1707663725649381600,4.361381591796875,4.208974838256836,8.683553695678711,-0.04546362906694412
1707663725666228500,4.378228515625,4.199403762817383,8.702695846557617,-0.038285162299871445
1707663725683075000,4.395074951171875,4.213760852813721,8.700303077697754,-0.03349951654672623
1707663725699921700,4.411921630859375,4.213760852813721,8.702695846557617,-0.02392822690308094
1707663725716768500,4.4287685546875,4.206582069396973,8.6907320022583,-0.02871387079358101
1707663725733615000,4.445614990234375,4.211368083953857,8.688339233398438,-0.031106693670153618
1707663725750462000,4.4624619140625,4.204189300537109,8.693124771118164,-0.02871387079358101
1707663725767308500,4.47930859375,4.2209391593933105,8.685946464538574,-0.02392822690308094
1707663725784155400,4.4961552734375,4.213760852813721,8.702695846557617,-0.031106693670153618
1707663725801002000,4.513001953125,4.213760852813721,8.6907320022583,-0.02153540402650833
1707663725817848800,4.529848876953125,4.211368083953857,8.685946464538574,-0.031106693670153618
1707663725834695400,4.5466953125,4.208974838256836,8.678768157958984,-0.031106693670153618
1707663725851542300,4.563542236328125,4.1970109939575195,8.693124771118164,-0.02632104977965355
1707663725868388900,4.580388916015625,4.194618225097656,8.681160926818848,-0.019142581149935722
1707663725885235700,4.597235595703125,4.182653903961182,8.700303077697754,-0.02632104977965355
1707663725902082300,4.614082275390625,4.192225456237793,8.685946464538574,-0.014356935396790504
1707663725918929200,4.63092919921875,4.199403762817383,8.683553695678711,-0.02153540402650833
1707663725935775700,4.647775634765625,4.18983268737793,8.6907320022583,-0.038285162299871445
1707663725952622600,4.66462255859375,4.194618225097656,8.676374435424805,-0.04546362906694412
1707663725969469200,4.68146923828125,4.1970109939575195,8.6907320022583,-0.04785645380616188
1707663725986316000,4.69831591796875,4.194618225097656,8.709874153137207,-0.038285162299871445
1707663726003162600,4.71516259765625,4.201796531677246,8.69791030883789,-0.04546362906694412
1707663726020009500,4.732009521484375,4.208974838256836,8.702695846557617,-0.035892341285943985
1707663726036856000,4.74885595703125,4.211368083953857,8.693124771118164,-0.04785645380616188
1707663726053703000,4.765702880859375,4.199403762817383,8.695517539978027,-0.040677983313798904
1707663726070549800,4.7825498046875,4.216153621673584,8.6907320022583,-0.03349951654672623
1707663726087396400,4.799396240234375,4.218546390533447,8.683553695678711,-0.038285162299871445
1707663726104243200,4.8162431640625,4.216153621673584,8.681160926818848,-0.02392822690308094
1707663726121090000,4.833090087890625,4.208974838256836,8.685946464538574,-0.031106693670153618
1707663726137936600,4.8499365234375,4.216153621673584,8.678768157958984,-0.016749758273363113
1707663726154783500,4.866783447265625,4.201796531677246,8.6907320022583,-0.02871387079358101
1707663726171630000,4.883630126953125,4.199403762817383,8.688339233398438,-0.03349951654672623
1707663726188477000,4.900476806640625,4.187439441680908,8.6907320022583,-0.04307080805301666
1707663726205323800,4.91732373046875,4.192225456237793,8.693124771118164,-0.019142581149935722
1707663726222170400,4.93417041015625,4.18983268737793,8.702695846557617,-0.040677983313798904
1707663726239017200,4.951017333984375,4.18983268737793,8.685946464538574,-0.04785645380616188
1707663726255863800,4.96786376953125,4.208974838256836,8.695517539978027,-0.04307080805301666
1707663726272710700,4.984710693359375,4.185046672821045,8.70508861541748,-0.031106693670153618
1707663726289557500,5.0015576171875,4.1970109939575195,8.700303077697754,-0.04546362906694412
1707663726306404400,5.018404296875,4.1970109939575195,8.70508861541748,-0.038285162299871445
1707663726323251000,5.0352509765625,4.218546390533447,8.69791030883789,-0.038285162299871445
1707663726340097800,5.052097900390625,4.208974838256836,8.693124771118164,-0.031106693670153618
1707663726356944400,5.0689443359375,4.213760852813721,8.688339233398438,-0.031106693670153618
1707663726373791200,5.085791259765625,4.218546390533447,8.69791030883789,-0.03349951654672623
1707663726390638000,5.10263818359375,4.201796531677246,8.685946464538574,-0.05742774158716202
1707663726407485000,5.11948486328125,4.211368083953857,8.695517539978027,-0.04785645380616188
1707663726424331500,5.13633154296875,4.206582069396973,8.700303077697754,-0.02392822690308094
1707663726441178400,5.153178466796875,4.208974838256836,8.700303077697754,-0.038285162299871445
1707663726458025200,5.170025146484375,4.208974838256836,8.678768157958984,-0.02871387079358101
1707663726474872000,5.1868720703125,4.211368083953857,8.681160926818848,-0.040677983313798904
1707663726491718700,5.20371875,4.194618225097656,8.673981666564941,-0.03349951654672623
1707663726508565500,5.2205654296875,4.208974838256836,8.688339233398438,-0.03349951654672623
1707663726525412400,5.237412353515625,4.218546390533447,8.676374435424805,-0.035892341285943985
1707663726542259200,5.25425927734375,4.199403762817383,8.688339233398438,-0.035892341285943985
1707663726559105800,5.271105712890625,4.18983268737793,8.693124771118164,-0.031106693670153618
1707663726575952600,5.28795263671875,4.1970109939575195,8.685946464538574,-0.035892341285943985
1707663726592799500,5.304799560546875,4.201796531677246,8.681160926818848,-0.035892341285943985
1707663726609646300,5.321646240234375,4.1970109939575195,8.707481384277344,-0.02871387079358101
1707663726626493000,5.338492919921875,4.194618225097656,8.6907320022583,-0.02392822690308094
1707663726643339800,5.35533984375,4.204189300537109,8.676374435424805,-0.040677983313798904
1707663726660186600,5.3721865234375,4.204189300537109,8.688339233398438,-0.04546362906694412
1707663726677033500,5.389033447265625,4.1970109939575195,8.71226692199707,-0.0526420995593071
1707663726693880300,5.40588037109375,4.208974838256836,8.693124771118164,-0.06699903309345245
1707663726710727200,5.42272705078125,4.211368083953857,8.70508861541748,-0.05024927482008934
1707663726727573800,5.43957373046875,4.216153621673584,8.685946464538574,-0.038285162299871445
1707663726744420600,5.456420654296875,4.216153621673584,8.695517539978027,-0.038285162299871445
1707663726761267500,5.473267333984375,4.201796531677246,8.683553695678711,-0.038285162299871445
1707663726778114300,5.4901142578125,4.223331928253174,8.657232284545898,-0.016749758273363113
1707663726794961200,5.506961181640625,4.213760852813721,8.683553695678711,0.004785645287483931
1707663726811807700,5.523807861328125,4.216153621673584,8.700303077697754,-0.004785645287483931
1707663726828654600,5.540654541015625,4.206582069396973,8.6907320022583,0.009571290574967861
1707663726845501400,5.55750146484375,4.204189300537109,8.685946464538574,-0.04785645380616188
1707663726862348300,5.574348388671875,4.201796531677246,8.688339233398438,-0.05024927482008934
1707663726879195100,5.591195068359375,4.208974838256836,8.69791030883789,-0.031106693670153618
1707663726896042000,5.6080419921875,4.199403762817383,8.69791030883789,-0.02153540402650833
1707663726912888800,5.624888916015625,4.18983268737793,8.688339233398438,-0.02632104977965355
1707663726929735400,5.6417353515625,4.206582069396973,8.681160926818848,-0.05024927482008934
1707663726946582300,5.658582275390625,4.216153621673584,8.702695846557617,-0.04546362906694412
1707663726963429000,5.67542919921875,4.204189300537109,8.695517539978027,-0.038285162299871445
1707663726980276000,5.69227587890625,4.213760852813721,8.683553695678711,-0.03349951654672623
1707663726997122800,5.709122802734375,4.204189300537109,8.688339233398438,-0.016749758273363113
1707663727013969700,5.7259697265625,4.208974838256836,8.681160926818848,-0.02871387079358101
1707663727030816500,5.74281640625,4.2281174659729,8.685946464538574,-0.04546362906694412
1707663727047663400,5.759663330078125,4.216153621673584,8.676374435424805,-0.04307080805301666
1707663727064510200,5.77651025390625,4.206582069396973,8.681160926818848,-0.04307080805301666
1707663727081357000,5.793357177734375,4.216153621673584,8.6907320022583,-0.05024927482008934
1707663727098204000,5.810203857421875,4.211368083953857,8.669196128845215,-0.0526420995593071
1707663727115050800,5.82705078125,4.223331928253174,8.683553695678711,-0.04307080805301666
1707663727131897600,5.843897705078125,4.213760852813721,8.69791030883789,-0.04546362906694412
1707663727148744200,5.860744140625,4.225724697113037,8.693124771118164,-0.016749758273363113
1707663727165591300,5.87759130859375,4.201796531677246,8.683553695678711,-0.038285162299871445
1707663727182438000,5.89443798828125,4.2209391593933105,8.688339233398438,-0.04307080805301666
1707663727199284700,5.91128466796875,4.213760852813721,8.6907320022583,-0.02871387079358101
1707663727216131600,5.928131591796875,4.218546390533447,8.695517539978027,-0.03349951654672623
1707663727232978400,5.944978515625,4.208974838256836,8.6907320022583,-0.02392822690308094
1707663727249825300,5.9618251953125,4.204189300537109,8.6907320022583,-0.016749758273363113
1707663727266672000,5.978672119140625,4.1970109939575195,8.6907320022583,-0.038285162299871445
1707663727283519000,5.99551904296875,4.206582069396973,8.676374435424805,-0.02632104977965355
1707663727300365800,6.01236572265625,4.216153621673584,8.688339233398438,-0.019142581149935722
1707663727317212700,6.029212646484375,4.194618225097656,8.693124771118164,-0.04307080805301666
1707663727334059500,6.0460595703125,4.211368083953857,8.681160926818848,-0.038285162299871445
1707663727350906400,6.06290625,4.204189300537109,8.685946464538574,-0.035892341285943985
1707663727367753200,6.079753173828125,4.216153621673584,8.700303077697754,-0.03349951654672623
1707663727384600000,6.09660009765625,4.216153621673584,8.702695846557617,-0.038285162299871445
1707663727401447000,6.113447021484375,4.185046672821045,8.683553695678711,-0.004785645287483931
1707663727418293800,6.130293701171875,4.208974838256836,8.695517539978027,-0.014356935396790504
1707663727435140600,6.147140625,4.211368083953857,8.678768157958984,-0.04307080805301666
1707663727451987500,6.163987548828125,4.2281174659729,8.693124771118164,-0.059820566326379776
1707663727468834300,6.180834228515625,4.218546390533447,8.6907320022583,-0.05742774158716202
1707663727485681200,6.19768115234375,4.208974838256836,8.681160926818848,-0.035892341285943985
1707663727502528300,6.2145283203125,4.211368083953857,8.688339233398438,-0.04307080805301666
1707663727519375000,6.231375,4.213760852813721,8.69791030883789,-0.035892341285943985
1707663727536222000,6.248221923828125,4.201796531677246,8.688339233398438,-0.031106693670153618
1707663727553068800,6.26506884765625,4.18983268737793,8.700303077697754,-0.07178468257188797
1707663727569915600,6.28191552734375,4.18983268737793,8.669196128845215,-0.0933200865983963
1707663727586762500,6.298762451171875,4.199403762817383,8.683553695678711,-0.0933200865983963
1707663727603609300,6.315609375,4.194618225097656,8.702695846557617,-0.062213387340307236
1707663727620456200,6.332456298828125,4.2209391593933105,8.70508861541748,-0.031106693670153618
1707663727637303000,6.349302978515625,4.192225456237793,8.6907320022583,-0.059820566326379776
1707663727654150000,6.36614990234375,4.211368083953857,8.676374435424805,-0.05024927482008934
1707663727670996700,6.382996826171875,4.216153621673584,8.693124771118164,-0.031106693670153618
1707663727687843600,6.399843505859375,4.213760852813721,8.702695846557617,-0.02392822690308094
1707663727704690400,6.4166904296875,4.1659040451049805,8.7505521774292,-0.019142581149935722
1707663727721537500,6.43353759765625,4.180261135101318,8.662017822265625,-0.014356935396790504
1707663727738384400,6.45038427734375,4.199403762817383,8.70508861541748,-0.05742774158716202
1707663727755231200,6.467231201171875,4.211368083953857,8.69791030883789,-0.0526420995593071
1707663727772078000,6.484078125,4.223331928253174,8.681160926818848,-0.02632104977965355
1707663727788925000,6.500925048828125,4.204189300537109,8.724231719970703,0.02153540402650833
1707663727805771800,6.517771728515625,4.216153621673584,8.678768157958984,0.016749758273363113
1707663727822618600,6.53461865234375,4.18983268737793,8.724231719970703,0.016749758273363113
1707663727839465500,6.551465576171875,4.1970109939575195,8.695517539978027,-0.04546362906694412
1707663727856312300,6.568312255859375,4.211368083953857,8.671588897705078,-0.035892341285943985
1707663727873159400,6.585159423828125,4.206582069396973,8.662017822265625,-0.05503492057323456
1707663727890006300,6.60200634765625,4.2281174659729,8.6907320022583,-0.08135596662759781
1707663727906853000,6.61885302734375,4.223331928253174,8.700303077697754,-0.02871387079358101
1707663727923700000,6.635699951171875,4.225724697113037,8.688339233398438,-0.014356935396790504
1707663727940546800,6.652546875,4.2209391593933105,8.678768157958984,-0.040677983313798904
1707663727957393700,6.6693935546875,4.237689018249512,8.673981666564941,-0.08614161610603333
1707663727974240800,6.68624072265625,4.2209391593933105,8.673981666564941,-0.07896314561367035
1707663727991087600,6.703087646484375,4.218546390533447,8.717052459716797,-0.0526420995593071
1707663728007934500,6.7199345703125,4.211368083953857,8.70508861541748,-0.04546362906694412
1707663728024781300,6.73678125,4.206582069396973,8.695517539978027,-0.04785645380616188
1707663728041628200,6.753628173828125,4.201796531677246,8.707481384277344,-0.04307080805301666
1707663728058475000,6.77047509765625,4.204189300537109,8.695517539978027,-0.04785645380616188
1707663728075322000,6.787322021484375,4.2281174659729,8.70508861541748,-0.014356935396790504
1707663728092169000,6.8041689453125,4.2209391593933105,8.6907320022583,-0.05503492057323456
1707663728109015800,6.821015869140625,4.206582069396973,8.695517539978027,-0.05024927482008934
1707663728125862700,6.837862548828125,4.225724697113037,8.6907320022583,0
1707663728142709500,6.85470947265625,4.213760852813721,8.683553695678711,-0.05742774158716202
1707663728159556600,6.871556640625,4.194618225097656,8.764909744262695,-0.08614161610603333
1707663728176403500,6.888403564453125,4.362115859985352,8.831908226013184,-0.16031911969184875
1707663728193250300,6.905250244140625,4.247260093688965,8.58066177368164,-0.14835500717163086
1707663728210097200,6.92209716796875,4.264009952545166,8.784051895141602,-0.11964113265275955
1707663728226944300,6.9389443359375,4.206582069396973,9.032905578613281,0.062213387340307236
1707663728243791000,6.955791015625,4.244867324829102,8.652446746826172,0.031106693670153618
1707663728260638000,6.972637939453125,4.223331928253174,8.621339797973633,-0.25363919138908386
1707663728277484800,6.98948486328125,4.1970109939575195,8.74337387084961,-0.0933200865983963
1707663728294331600,7.00633154296875,4.240081787109375,8.714659690856934,0
1707663728311178800,7.0231787109375,4.2281174659729,8.6907320022583,0.040677983313798904
1707663728328025600,7.040025634765625,4.242474555969238,8.71226692199707,-0.035892341285943985
1707663728344872400,7.05687255859375,4.218546390533447,8.642875671386719,-0.04785645380616188
1707663728361719300,7.07371923828125,4.199403762817383,8.343772888183594,-0.1866401731967926
1707663728378566400,7.09056640625,4.249652862548828,8.595019340515137,-0.016749758273363113
1707663728395413200,7.107413330078125,4.130012035369873,8.774480819702148,0.02153540402650833
1707663728412260000,7.124260009765625,4.1491546630859375,8.642875671386719,-0.12921242415905
1707663728429107000,7.14110693359375,4.213760852813721,8.733802795410156,-0.05742774158716202
1707663728445954000,7.1579541015625,4.211368083953857,8.788837432861328,0.14835500717163086
1707663728462801000,7.17480078125,4.1970109939575195,8.74337387084961,0.14117653667926788
1707663728479647700,7.191647705078125,4.206582069396973,8.652446746826172,-0.05024927482008934
1707663728496494600,7.20849462890625,4.230510234832764,8.707481384277344,-0.12681959569454193
1707663728513341700,7.225341796875,4.216153621673584,8.647661209106445,-0.16749759018421173
1707663728530188500,7.2421884765625,4.187439441680908,8.685946464538574,-0.17946170270442963
1707663728547035400,7.259035400390625,4.256831645965576,8.640482902526855,0.02392822690308094
1707663728563882500,7.275882568359375,4.208974838256836,8.676374435424805,0.12681959569454193
1707663728580729300,7.292729248046875,4.240081787109375,8.755337715148926,0.07417750358581543
1707663728597576200,7.309576171875,4.254438877105713,8.740981101989746,-0.02632104977965355
1707663728614423000,7.326423095703125,4.213760852813721,8.673981666564941,-0.0023928226437419653
1707663728631270100,7.343270263671875,4.194618225097656,8.676374435424805,-0.08853443711996078
1707663728648117000,7.360116943359375,4.201796531677246,8.676374435424805,-0.15074782073497772
1707663728664963800,7.3769638671875,4.256831645965576,8.702695846557617,-0.12681959569454193
1707663728681811000,7.39381103515625,4.237689018249512,8.695517539978027,-0.07657032459974289
1707663728698657800,7.41065771484375,4.187439441680908,8.669196128845215,-0.004785645287483931
1707663728715504600,7.427504638671875,4.194618225097656,8.676374435424805,0.02392822690308094
1707663728732351700,7.444351806640625,4.256831645965576,8.714659690856934,0.07178468257188797
1707663728749198600,7.461198486328125,4.156332969665527,8.681160926818848,0.06939185410737991
1707663728766045400,7.47804541015625,4.1036906242370605,8.664410591125488,-0.28953152894973755
1707663728782892500,7.494892578125,4.340580463409424,8.72183895111084,-0.0023928226437419653
1707663728799739400,7.511739501953125,4.431507587432861,8.757730484008789,0.08853443711996078
1707663728816586200,7.528586181640625,3.91705060005188,8.745766639709473,-0.04546362906694412
1707663728833433300,7.545433349609375,4.091726779937744,8.602197647094727,-0.009571290574967861
1707663728850280200,7.5622802734375,4.6061835289001465,8.635697364807129,0.10767702013254166
1707663728867127000,7.579126953125,4.01754903793335,8.891729354858398,0.2679961323738098
1707663728883974100,7.59597412109375,4.000799655914307,8.556734085083008,0.038285162299871445
1707663728900821000,7.612821044921875,4.5822553634643555,8.659625053405762,-0.24885354936122894
1707663728917667800,7.629667724609375,4.3310089111328125,8.824729919433594,-0.02871387079358101
1707663728934515000,7.646514892578125,3.9074792861938477,8.63330364227295,-0.10289137065410614
1707663728951361800,7.66336181640625,4.177868366241455,8.595019340515137,-0.21774685382843018
1707663728968209000,7.680208984375,4.386044025421143,8.745766639709473,-0.11724831163883209
1707663728985055700,7.6970556640625,3.9218363761901855,8.685946464538574,0.6125625967979431
1707663729001902600,7.713902587890625,4.555934429168701,8.858229637145996,0.20817556977272034
1707663729018749700,7.730749755859375,4.438685894012451,8.776873588562012,0.2632105052471161
1707663729035596500,7.747596435546875,3.7663028240203857,8.37009334564209,-1.1126625537872314
1707663729052443400,7.764443359375,4.3070807456970215,8.532805442810059,-0.6173482537269592
1707663729069290500,7.78129052734375,4.242474555969238,8.614161491394043,0.2273181527853012
1707663729086137300,7.798137451171875,4.235296249389648,8.970691680908203,0.2392822653055191
1707663729102984200,7.814984130859375,4.2209391593933105,8.793622970581055,0.49292147159576416
1707663729119831300,7.831831298828125,4.177868366241455,8.6907320022583,-0.3038884699344635
1707663729136678100,7.84867822265625,4.335794448852539,8.516056060791016,-0.4091726839542389
1707663729153525200,7.865525146484375,4.120440483093262,8.717052459716797,-0.28953152894973755
1707663729170372000,7.8823720703125,4.156332969665527,8.707481384277344,-0.10289137065410614
1707663729187219000,7.899218994140625,4.445864677429199,9.020941734313965,0.3684946894645691
1707663729204066000,7.916066162109375,4.2209391593933105,8.650053977966309,0.34217363595962524
1707663729220913000,7.932912841796875,4.012763500213623,8.458627700805664,-0.363709032535553
1707663729237760000,7.949760009765625,4.42193603515625,8.58066177368164,-0.3445664644241333
1707663729254606800,7.96660693359375,4.304687976837158,8.717052459716797,-0.19621145725250244
1707663729271454000,7.983453857421875,4.06540584564209,8.915657043457031,0.07657032459974289
1707663729288300800,8.00030078125,4.168296813964844,8.57348346710205,0.18424734473228455
1707663729305147600,8.017147705078125,4.328616142272949,8.810373306274414,0.15314064919948578
1707663729321994800,8.033994873046876,4.199403762817383,8.693124771118164,-0.04307080805301666
1707663729338841600,8.050841552734376,4.139583110809326,8.669196128845215,0.02392822690308094
1707663729355688400,8.0676884765625,4.412364959716797,8.650053977966309,-0.12203395366668701
1707663729372535600,8.08453564453125,4.060619831085205,8.685946464538574,-0.04307080805301666
1707663729389382400,8.10138232421875,4.118047714233398,8.642875671386719,0.0526420995593071
1707663729406229500,8.1182294921875,4.4482574462890625,8.81515884399414,0.0526420995593071
1707663729423076400,8.135076416015625,4.261617183685303,8.757730484008789,0.004785645287483931
1707663729439923500,8.15192333984375,4.067798614501953,8.757730484008789,0.06939185410737991
1707663729456770300,8.168770263671876,4.163511276245117,8.525627136230469,0.040677983313798904
1707663729473617400,8.185617431640624,4.319045066833496,8.652446746826172,0
1707663729490464300,8.20246435546875,4.268795490264893,8.827122688293457,-0.18424734473228455
1707663729507311000,8.21931103515625,4.161118507385254,8.733802795410156,-0.28235307335853577
1707663729524158200,8.236158203125,4.242474555969238,8.628518104553223,-0.1698904037475586
1707663729541005000,8.253005126953125,4.211368083953857,8.585447311401367,0
1707663729557852200,8.26985205078125,4.185046672821045,8.669196128845215,0.062213387340307236
1707663729574699000,8.286698974609376,4.338187217712402,8.719446182250977,-0.009571290574967861
1707663729591546000,8.303546142578124,4.323830604553223,8.752944946289062,-0.0933200865983963
1707663729608393000,8.32039306640625,4.0558342933654785,8.717052459716797,-0.13639089465141296
1707663729625240000,8.337239990234375,4.235296249389648,8.47298526763916,-0.24406790733337402
1707663729642087000,8.3540869140625,4.292723655700684,8.657232284545898,-0.1339980661869049
1707663729658933800,8.370933837890625,4.125226020812988,8.760123252868652,0.12921242415905
1707663729675780900,8.38778076171875,4.242474555969238,8.779266357421875,0.05742774158716202
1707663729692628000,8.4046279296875,4.326223373413086,8.602197647094727,-0.1579262912273407
1707663729709474800,8.421474853515624,4.204189300537109,8.752944946289062,0.10049854964017868
1707663729726321700,8.43832177734375,4.175475597381592,8.575876235961914,0.14117653667926788
1707663729743168800,8.455168701171875,4.302295207977295,8.597412109375,-0.16271193325519562
1707663729760015600,8.472015625,4.206582069396973,8.82951545715332,-0.08614161610603333
1707663729776862700,8.48886279296875,4.244867324829102,8.666803359985352,0
1707663729793709600,8.50570947265625,4.295116424560547,8.685946464538574,-0.02632104977965355
1707663729810556700,8.522556640625,4.232903480529785,8.688339233398438,0.27038896083831787
1707663729827403500,8.539403564453124,4.144368648529053,8.673981666564941,0.23449662327766418
1707663729844250600,8.556250732421875,4.244867324829102,8.731410026550293,0.05742774158716202
1707663729861097500,8.573097412109375,4.2831525802612305,8.700303077697754,-0.1339980661869049
1707663729877944600,8.589944580078125,4.151547431945801,8.616554260253906,-0.2105683982372284
1707663729894791400,8.60679150390625,4.18983268737793,8.645268440246582,-0.32542386651039124
1707663729911638500,8.623638427734376,4.208974838256836,8.647661209106445,-0.26081767678260803
1707663729928485400,8.6404853515625,4.199403762817383,8.685946464538574,-0.016749758273363113
1707663729945332500,8.65733251953125,4.340580463409424,8.647661209106445,0.14835500717163086
1707663729962179300,8.674179443359375,4.285545349121094,8.755337715148926,0.19381862878799438
1707663729979026400,8.6910263671875,4.120440483093262,8.81515884399414,0.05503492057323456
1707663729995873300,8.707873291015625,4.185046672821045,8.614161491394043,-0.30149564146995544
1707663730012720400,8.724720458984375,4.299902439117432,8.616554260253906,-0.41156548261642456
1707663730029567200,8.741567138671876,4.237689018249512,8.779266357421875,-0.15074782073497772
1707663730046414000,8.7584140625,4.185046672821045,8.4562349319458,-0.02153540402650833
1707663730063261200,8.77526123046875,4.161118507385254,8.85344409942627,0.03349951654672623
1707663730080108000,8.79210791015625,4.271188259124756,8.724231719970703,0.49292147159576416
1707663730096955100,8.808955078125,4.328616142272949,8.61176872253418,-0.14835500717163086
1707663730113802200,8.82580224609375,4.240081787109375,8.666803359985352,-0.26560330390930176
1707663730130649000,8.842649169921875,4.170690059661865,8.429914474487305,-0.32303106784820557
1707663730147496200,8.85949609375,4.137190341949463,8.578269004821777,-0.38763725757598877
1707663730164343000,8.876343017578124,4.29033088684082,8.760123252868652,0.5216353535652161
1707663730181190100,8.893190185546874,4.333401679992676,8.69791030883789,0.2512463629245758
1707663730198037000,8.910037109375,4.1491546630859375,8.913264274597168,0.07896314561367035
1707663730214884000,8.926884033203125,4.158725738525391,8.717052459716797,0.4498506486415863
1707663730231731000,8.94373095703125,4.187439441680908,8.7505521774292,-0.4019941985607147
1707663730248577800,8.960577880859375,4.309473514556885,8.685946464538574,-0.03349951654672623
1707663730265425000,8.9774248046875,4.2209391593933105,8.63330364227295,-0.41156548261642456
1707663730282272000,8.99427197265625,4.225724697113037,8.71226692199707,-0.040677983313798904
1707663730299118800,9.011118896484374,4.156332969665527,8.482556343078613,0.19142581522464752
1707663730315966000,9.027966064453125,4.115654945373535,8.575876235961914,-0.019142581149935722
1707663730332812800,9.044812744140625,4.35254430770874,8.772088050842285,-0.06699903309345245
1707663730349660000,9.061659912109375,4.213760852813721,8.702695846557617,-0.12921242415905
1707663730366506800,9.0785068359375,4.256831645965576,8.688339233398438,-0.014356935396790504
1707663730383353900,9.095353759765626,4.225724697113037,8.731410026550293,0.0023928226437419653
1707663730400200700,9.11220068359375,4.113262176513672,8.647661209106445,-0.09092725813388824
1707663730417047800,9.1290478515625,4.275974273681641,8.688339233398438,-0.0526420995593071
1707663730433894700,9.145894775390625,4.342973232269287,8.650053977966309,-0.1459621787071228
1707663730450741800,9.16274169921875,4.158725738525391,8.683553695678711,-0.22492532432079315
1707663730467588600,9.179588623046875,4.077369689941406,8.669196128845215,-0.26081767678260803
1707663730484435700,9.196435791015626,4.328616142272949,8.654839515686035,0.09810572862625122
1707663730501282600,9.213282470703126,4.3070807456970215,8.800801277160645,0.27038896083831787
1707663730518129700,9.230129638671874,4.137190341949463,8.767302513122559,0.07657032459974289
1707663730534976800,9.246976806640625,4.2209391593933105,8.683553695678711,-0.28235307335853577
1707663730551823600,9.26382373046875,4.201796531677246,8.616554260253906,-0.25363919138908386
1707663730568670700,9.280670654296875,4.170690059661865,8.685946464538574,0.0023928226437419653
1707663730585517600,9.297517578125,4.357329845428467,8.71226692199707,0.13160525262355804
1707663730602364700,9.31436474609375,4.271188259124756,8.616554260253906,0.059820566326379776
1707663730619211500,9.33121142578125,4.144368648529053,8.786444664001465,-0.11246266216039658
1707663730636058600,9.34805859375,4.158725738525391,8.645268440246582,0.20099709928035736
1707663730652905500,9.364905517578125,4.302295207977295,8.6907320022583,-0.0023928226437419653
1707663730669752600,9.381752685546875,4.2831525802612305,8.755337715148926,0.10767702013254166
1707663730686599400,9.398599365234375,4.168296813964844,8.666803359985352,-0.22013968229293823
1707663730703446500,9.415446533203125,4.2281174659729,8.499305725097656,-0.4785645306110382
1707663730720293400,9.43229345703125,4.1419758796691895,8.614161491394043,-0.0933200865983963
1707663730737140500,9.449140380859374,4.12761926651001,8.597412109375,0.08135596662759781
1707663730753987300,9.4659873046875,4.340580463409424,7.946564197540283,-2.5148565769195557
1707663730770834400,9.48283447265625,4.962714195251465,8.920442581176758,-0.5096712112426758
1707663730787681500,9.499681640625,3.933800458908081,8.870193481445312,0.6747759580612183
1707663730804528400,9.5165283203125,3.9792640209198,8.640482902526855,1.2011969089508057
1707663730821375500,9.53337548828125,3.996013879776001,9.150154113769531,0.30149564146995544
1707663730838222300,9.550222412109376,4.587040901184082,8.48734188079834,-1.1892328262329102
1707663730855069400,9.5670693359375,4.254438877105713,8.298309326171875,-0.7513462901115417
1707663730871916300,9.583916259765624,4.098905086517334,8.542376518249512,-0.2105683982372284
1707663730888763400,9.600763427734375,4.555934429168701,8.817551612854004,0.17706887423992157
1707663730905610200,9.6176103515625,4.163511276245117,8.69791030883789,0.4666004180908203
1707663730922457300,9.634457275390625,4.338187217712402,8.796015739440918,0.1866401731967926
1707663730939304200,9.65130419921875,4.280759811401367,8.403593063354492,-0.27038896083831787
1707663730956151300,9.6681513671875,4.398007869720459,9.518648147583008,0.6269195079803467
1707663730972998100,9.684998046875,4.388436794281006,9.09990406036377,-0.6005984544754028
1707663730989845200,9.70184521484375,4.34536600112915,8.898907661437988,0.035892341285943985
1707663731006692400,9.7186923828125,4.201796531677246,8.638090133666992,0.03349951654672623
1707663731023539200,9.735539306640625,4.151547431945801,8.762516975402832,0.004785645287483931
1707663731040386300,9.75238623046875,4.3310089111328125,8.764909744262695,0.03349951654672623
1707663731057233200,9.769233154296876,4.208974838256836,8.73619556427002,-0.05742774158716202
1707663731074080300,9.786080322265626,4.1419758796691895,8.602197647094727,-0.0023928226437419653
1707663731090927000,9.802927001953124,4.158725738525391,8.709874153137207,0.01196411345154047
1707663731107774200,9.819774169921875,4.295116424560547,8.72183895111084,-0.08135596662759781
1707663731124621000,9.83662109375,4.185046672821045,8.72901725769043,-0.059820566326379776
1707663731141468200,9.85346826171875,4.1419758796691895,8.719446182250977,-0.06939185410737991
1707663731158315000,9.87031494140625,4.180261135101318,8.662017822265625,0.1339980661869049
1707663731175162000,9.887162109375,4.175475597381592,8.681160926818848,-0.0023928226437419653
1707663731192009200,9.90400927734375,4.278367042541504,8.700303077697754,-0.038285162299871445
1707663731208856000,9.92085595703125,4.242474555969238,8.719446182250977,-0.02632104977965355
1707663731225703200,9.937703125,4.187439441680908,8.61176872253418,-0.04307080805301666
1707663731242550000,9.954550048828125,4.232903480529785,8.676374435424805,-0.14356936514377594
1707663731259397000,9.971397216796875,4.264009952545166,8.650053977966309,-0.12203395366668701
1707663731276244000,9.988243896484375,4.299902439117432,8.72901725769043,0.02392822690308094
1707663731293091000,10.005091064453126,4.311866283416748,8.702695846557617,-0.02632104977965355
1707663731309938000,10.02193798828125,4.232903480529785,8.662017822265625,0.016749758273363113
1707663731326785000,10.038784912109374,4.2209391593933105,8.681160926818848,-0.02153540402650833
1707663731343632100,10.055632080078125,4.297509670257568,8.709874153137207,-0.059820566326379776
1707663731360479000,10.07247900390625,4.278367042541504,8.726624488830566,-0.1339980661869049
1707663731377326000,10.089326171875,4.302295207977295,8.659625053405762,-0.02632104977965355
1707663731394173000,10.1061728515625,4.223331928253174,8.676374435424805,-0.0526420995593071
1707663731411020000,10.12302001953125,4.110869407653809,8.638090133666992,-0.10767702013254166
1707663731427867000,10.139866943359374,4.137190341949463,8.683553695678711,-0.21296121180057526
1707663731444714000,10.1567138671875,4.29033088684082,8.628518104553223,-0.06939185410737991
1707663731461560800,10.173560791015625,4.201796531677246,8.669196128845215,0.01196411345154047
1707663731478408000,10.190407958984375,4.158725738525391,8.714659690856934,0.01196411345154047
1707663731495255000,10.207255126953125,4.223331928253174,8.709874153137207,-0.004785645287483931
1707663731512102000,10.224101806640626,4.201796531677246,8.72183895111084,0.02871387079358101
1707663731528949000,10.240948974609376,4.204189300537109,8.726624488830566,-0.04307080805301666
1707663731545795800,10.2577958984375,4.297509670257568,8.666803359985352,-0.04546362906694412
1707663731562643000,10.274642822265625,4.244867324829102,8.714659690856934,0.016749758273363113
1707663731579489800,10.29148974609375,4.201796531677246,8.707481384277344,0.0023928226437419653
1707663731596337000,10.3083369140625,4.223331928253174,8.6907320022583,-0.08135596662759781
1707663731613183700,10.325183837890625,4.266402721405029,8.700303077697754,-0.09092725813388824
1707663731630030800,10.34203076171875,4.218546390533447,8.664410591125488,0.004785645287483931
1707663731646877700,10.358877685546876,4.247260093688965,8.652446746826172,-0.05503492057323456
1707663731663724800,10.375724853515624,4.328616142272949,8.654839515686035,-0.11485548317432404
1707663731680572000,10.392572021484375,4.2281174659729,8.695517539978027,-0.08853443711996078
1707663731697418800,10.409418701171875,4.187439441680908,8.628518104553223,-0.02632104977965355
1707663731714265900,10.426265869140625,4.249652862548828,8.669196128845215,-0.11006984114646912
1707663731731113200,10.44311328125,4.29033088684082,8.676374435424805,-0.009571290574967861
1707663731747959800,10.459959716796876,4.185046672821045,8.688339233398438,-0.004785645287483931
1707663731764806700,10.476806640625,4.208974838256836,8.659625053405762,-0.11724831163883209
1707663731781653800,10.49365380859375,4.297509670257568,8.695517539978027,-0.10289137065410614
1707663731798500600,10.51050048828125,4.144368648529053,8.69791030883789,-0.02632104977965355
1707663731815347700,10.52734765625,4.1491546630859375,8.666803359985352,-0.0933200865983963
1707663731832194600,10.544194580078125,4.285545349121094,8.681160926818848,-0.040677983313798904
1707663731849041700,10.561041748046875,4.185046672821045,8.714659690856934,-0.04546362906694412
1707663731865888800,10.577888671875,4.1730828285217285,8.719446182250977,-0.01196411345154047
1707663731882735600,10.594735595703124,4.252045631408691,8.695517539978027,-0.16271193325519562
1707663731899582700,10.611582763671874,4.213760852813721,8.724231719970703,-0.05742774158716202
1707663731916429600,10.6284296875,4.1970109939575195,8.714659690856934,-0.04546362906694412
1707663731933276700,10.645276611328125,4.235296249389648,8.664410591125488,-0.02871387079358101
1707663731950123500,10.66212353515625,4.275974273681641,8.693124771118164,0.0526420995593071
1707663731966970600,10.678970703125,4.237689018249512,8.693124771118164,-0.004785645287483931
1707663731983817500,10.6958173828125,4.261617183685303,8.719446182250977,-0.05024927482008934
1707663732000664600,10.71266455078125,4.2281174659729,8.6907320022583,-0.07896314561367035
1707663732017511700,10.72951171875,4.232903480529785,8.688339233398438,0.11485548317432404
1707663732034358500,10.746358642578125,4.2592244148254395,8.666803359985352,0.02392822690308094
1707663732051205600,10.76320556640625,4.271188259124756,8.676374435424805,-0.02871387079358101
1707663732068052500,10.780052490234375,4.223331928253174,8.678768157958984,-0.07417750358581543
1707663732084899600,10.796899658203126,4.235296249389648,8.683553695678711,-0.05024927482008934
1707663732101746400,10.813746337890626,4.230510234832764,8.652446746826172,-0.13160525262355804
1707663732118593500,10.830593505859374,4.252045631408691,8.683553695678711,0.06939185410737991
1707663732135440400,10.8474404296875,4.225724697113037,8.757730484008789,0.019142581149935722
1707663732152287500,10.86428759765625,4.175475597381592,8.590232849121094,-0.07896314561367035
1707663732169134600,10.881134521484375,4.350151538848877,8.470592498779297,-0.33499518036842346
1707663732185981400,10.8979814453125,4.4721856117248535,8.511270523071289,-0.1052841991186142
1707663732202828500,10.91482861328125,4.6540398597717285,8.193024635314941,-0.05742774158716202
1707663732219675400,10.93167529296875,5.565705299377441,8.207381248474121,0.05503492057323456
1707663732236522500,10.9485224609375,5.441278457641602,8.37727165222168,-0.3158525824546814
1707663732253369300,10.965369384765625,3.8883368968963623,8.628518104553223,-0.26560330390930176
1707663732270216400,10.982216552734375,3.902693748474121,8.7505521774292,-0.12203395366668701
1707663732287063300,10.999063232421875,4.737788677215576,8.628518104553223,0.11006984114646912
1707663732303910400,11.015910400390625,3.94097900390625,8.786444664001465,0.09571290761232376
1707663732320757500,11.032757568359376,3.87876558303833,8.650053977966309,0.016749758273363113
1707663732337604400,11.049604248046874,4.280759811401367,8.831908226013184,0.03349951654672623
1707663732354451500,11.066451416015624,4.170690059661865,8.776873588562012,-0.07417750358581543
1707663732371298300,11.08329833984375,4.110869407653809,8.927620887756348,0.16510476171970367
1707663732388145400,11.1001455078125,4.522434711456299,8.865407943725586,0.07417750358581543
1707663732404992300,11.1169921875,4.54636287689209,8.70508861541748,0.4450650215148926
1707663732421839400,11.13383935546875,4.232903480529785,8.61894702911377,0.12203395366668701
1707663732438686200,11.150686279296876,4.40757942199707,8.60459041595459,0.1459621787071228
1707663732455533300,11.167533203125,4.668396949768066,8.566305160522461,-0.0933200865983963
1707663732472380400,11.18438037109375,4.587040901184082,8.520841598510742,-0.12203395366668701
1707663732489227300,11.201227294921875,4.639683246612549,8.72183895111084,0.26081767678260803
1707663732506074400,11.218074462890625,4.804787635803223,8.566305160522461,0.3158525824546814
1707663732522921200,11.234921142578125,4.768895626068115,8.621339797973633,0.31824541091918945
1707663732539768300,11.251768310546876,4.596612453460693,8.420342445373535,-0.02871387079358101
1707663732556615200,11.268615234375,4.649254322052002,8.437092781066895,-0.2153540402650833
1707663732573462300,11.285462158203124,4.890929698944092,8.38684368133545,-0.5647061467170715
1707663732590309400,11.302309326171875,4.646861553192139,8.518448829650879,-0.31824541091918945
1707663732607156200,11.31915625,4.713860511779785,8.561519622802734,0.07417750358581543
1707663732624003300,11.33600341796875,4.792823791503906,8.413164138793945,0.2153540402650833
1707663732640850200,11.35285009765625,4.78803825378418,8.46341323852539,0.24167509377002716
1707663732657697300,11.369697265625,4.7401814460754395,8.475378036499023,-0.09810572862625122
1707663732674544000,11.386544189453126,4.6372904777526855,8.446663856506348,-0.48095735907554626
1707663732691391200,11.40339111328125,4.72582483291626,8.295916557312012,-0.6101697683334351
1707663732708238000,11.420238037109375,4.658825874328613,8.382058143615723,-0.3924229145050049
1707663732725085200,11.437085205078125,4.610969066619873,8.461020469665527,-0.0023928226437419653
1707663732741932300,11.453932373046875,4.773681163787842,8.549555778503418,0.1866401731967926
1707663732758779100,11.470779052734375,4.780859470367432,8.547162055969238,0.27038896083831787
1707663732775626200,11.487626220703126,4.596612453460693,8.525627136230469,-0.05742774158716202
1707663732792473000,11.50447314453125,4.677968502044678,8.451449394226074,-0.30149564146995544
1707663732809320200,11.5213203125,4.845465660095215,8.396414756774902,-0.44745782017707825
1707663732826167000,11.5381669921875,4.780859470367432,8.441878318786621,-0.3086741268634796
1707663732843014100,11.55501416015625,4.898108005523682,8.449056625366211,0.009571290574967861
1707663732859861200,11.571861328125,4.941178798675537,8.46580696105957,0.30628129839897156
1707663732876708000,11.5887080078125,4.8191447257995605,8.47298526763916,0.3732803463935852
1707663732893555200,11.60555517578125,4.797609329223633,8.547162055969238,0.2225325107574463
1707663732910402000,11.622402099609374,4.900500774383545,8.535198211669922,-0.009571290574967861
1707663732927249200,11.639249267578125,4.823930263519287,8.504091262817383,-0.2632105052471161
1707663732944096000,11.656095947265625,4.744967460632324,8.458627700805664,-0.2153540402650833
1707663732960943000,11.672943115234375,4.778466701507568,8.427521705627441,-0.09810572862625122
1707663732977790200,11.689790283203125,4.785645484924316,8.461020469665527,0.06939185410737991
1707663732994637000,11.706636962890625,4.737788677215576,8.50169849395752,0.24167509377002716
1707663733011484200,11.723484130859376,4.768895626068115,8.458627700805664,0.28235307335853577
1707663733028331000,11.7403310546875,4.756931304931641,8.518448829650879,0.18903298676013947
1707663733045178000,11.75717822265625,4.730610370635986,8.532805442810059,0.0933200865983963
1707663733062025000,11.77402490234375,4.730610370635986,8.48016357421875,-0.059820566326379776
1707663733078872000,11.7908720703125,4.749752998352051,8.46341323852539,-0.27756741642951965
1707663733095719000,11.807718994140625,4.783252239227295,8.432307243347168,-0.27038896083831787
1707663733112566000,11.82456591796875,4.744967460632324,8.37009334564209,-0.12442677468061447
1707663733129413000,11.8414130859375,4.807180881500244,8.408378601074219,0.17706887423992157
1707663733146260000,11.858260009765624,4.759324073791504,8.451449394226074,0.24406790733337402
1707663733163107000,11.875107177734375,4.625326156616211,8.4562349319458,0.12203395366668701
1707663733179954000,11.891953857421875,4.704289436340332,8.49452018737793,-0.26560330390930176
1707663733196801000,11.908801025390625,4.716253280639648,8.458627700805664,-0.5000999569892883
1707663733213648100,11.925648193359375,4.565505504608154,8.413164138793945,-0.4570291340351105
1707663733230495000,11.942494873046876,4.6372904777526855,8.468199729919434,-0.15314064919948578
1707663733247342000,11.959342041015624,4.785645484924316,8.595019340515137,0.21774685382843018
1707663733264189000,11.97618896484375,4.668396949768066,8.702695846557617,0.33499518036842346
1707663733281036000,11.9930361328125,4.768895626068115,8.599804878234863,0.16031911969184875
1707663733297883000,12.0098828125,4.656432628631592,8.506484031677246,-0.2871387302875519
1707663733314730000,12.02672998046875,4.575077056884766,8.413164138793945,-0.4426721930503845
1707663733331577000,12.0435771484375,4.780859470367432,8.513663291931152,-0.3158525824546814
1707663733348424000,12.060423828125,4.785645484924316,8.492127418518066,0.019142581149935722
1707663733365271000,12.07727099609375,4.675575256347656,8.537590980529785,0.4570291340351105
1707663733382118000,12.094117919921874,4.66361141204834,8.449056625366211,0.46899324655532837
1707663733398965000,12.110965087890625,4.651647090911865,8.437092781066895,-0.019142581149935722
1707663733415812000,12.12781201171875,4.6372904777526855,8.34855842590332,-0.380458801984787
1707663733432659000,12.144658935546875,4.814359188079834,8.315058708190918,-0.46420758962631226
1707663733449506000,12.161506103515626,4.704289436340332,8.401200294494629,-0.05742774158716202
1707663733466353000,12.178352783203126,4.718646049499512,8.484949111938477,0.4666004180908203
1707663733483200000,12.195199951171874,4.735395908355713,8.583054542541504,0.5551348328590393
1707663733500046800,12.212046875,4.7234320640563965,8.477770805358887,0.21296121180057526
1707663733516894000,12.22889404296875,4.651647090911865,8.518448829650879,-0.2273181527853012
1707663733533741000,12.245740966796875,4.730610370635986,8.47298526763916,-0.5910272002220154
1707663733550588000,12.262587890625,4.878965377807617,8.496912956237793,-0.31106695532798767
1707663733567435000,12.27943505859375,4.749752998352051,8.530412673950195,0.13639089465141296
1707663733584281900,12.29628173828125,4.668396949768066,8.50169849395752,0.5647061467170715
1707663733601129000,12.31312890625,4.584648132324219,8.518448829650879,0.46899324655532837
1707663733617976000,12.32997607421875,4.737788677215576,8.506484031677246,-0.22971096634864807
1707663733634823000,12.346822998046875,4.783252239227295,8.434700012207031,-0.6269195079803467
1707663733651670000,12.363669921875,4.627718925476074,8.319844245910645,-0.641276478767395
1707663733668517000,12.38051708984375,4.756931304931641,8.365307807922363,-0.17706887423992157
1707663733685364000,12.397364013671876,4.807180881500244,8.441878318786621,0.24646073579788208
1707663733702211000,12.414211181640624,4.7473602294921875,8.49452018737793,0.5024927258491516
1707663733719058000,12.431057861328124,4.673182487487793,8.516056060791016,0.05024927482008934
1707663733735905000,12.447905029296875,4.878965377807617,8.475378036499023,-0.4331009089946747
1707663733752752000,12.464752197265625,4.737788677215576,8.324629783630371,-0.7657032608985901
1707663733769599000,12.481598876953125,4.503292083740234,8.286344528198242,-0.5024927258491516
1707663733786446000,12.498446044921875,4.9363932609558105,8.504091262817383,0.29431718587875366
1707663733803293000,12.51529296875,4.965106964111328,8.61894702911377,0.4450650215148926
1707663733820140000,12.53214013671875,4.639683246612549,8.470592498779297,0.4570291340351105
1707663733836987100,12.548987060546875,4.587040901184082,8.350951194763184,-0.14356936514377594
1707663733853834000,12.565833984375,4.776073932647705,8.300702095031738,-0.6580262184143066
1707663733870681000,12.58268115234375,4.603790760040283,8.49452018737793,-0.48574298620224
1707663733887528000,12.59952783203125,4.634897232055664,8.630910873413086,-0.014356935396790504
1707663733904375000,12.616375,4.838287353515625,8.606983184814453,0.47617170214653015
1707663733921222100,12.63322216796875,4.661218643188477,8.731410026550293,0.5958128571510315
1707663733938069000,12.650069091796874,4.498506546020508,8.623732566833496,0.31345975399017334
1707663733954916000,12.666916015625,4.436293125152588,8.58066177368164,-0.24167509377002716
1707663733971763200,12.68376318359375,4.603790760040283,8.453842163085938,-0.49292147159576416
1707663733988610000,12.700610107421875,4.689932346343994,8.46580696105957,-0.2727817893028259
1707663734005457200,12.71745703125,4.622933387756348,8.714659690856934,0.2560320198535919
1707663734022304000,12.734303955078126,4.5822553634643555,8.726624488830566,0.7322037220001221
1707663734039151000,12.751151123046874,4.398007869720459,8.688339233398438,0.48095735907554626
1707663734055998200,12.767998291015624,4.412364959716797,8.685946464538574,-0.27756741642951965
1707663734072845000,12.784844970703125,4.752145767211914,8.439485549926758,-0.6795616149902344
1707663734089692200,12.801692138671875,4.603790760040283,8.446663856506348,-0.4450650215148926
1707663734106539300,12.818539306640625,4.642076015472412,8.374878883361816,-0.02632104977965355
1707663734123386000,12.83538623046875,4.587040901184082,8.544769287109375,0.5958128571510315
1707663734140233200,12.852233154296876,4.675575256347656,8.539983749389648,0.2967100143432617
1707663734157080000,12.869080078125,4.821537494659424,8.482556343078613,-0.18903298676013947
1707663734173927200,12.88592724609375,4.701896667480469,8.315058708190918,-0.6029912829399109
1707663734190774300,12.902774169921875,4.67078971862793,8.267202377319336,-0.5551348328590393
1707663734207621000,12.91962109375,4.7234320640563965,8.343772888183594,-0.07657032459974289
1707663734224468200,12.93646826171875,4.811966419219971,8.346165657043457,0.2225325107574463
1707663734241315300,12.9533154296875,4.6372904777526855,8.506484031677246,0.36610186100006104
1707663734258162200,12.970162109375,4.66361141204834,8.322237014770508,0.02632104977965355
1707663734275009300,12.98700927734375,4.47697114944458,8.2695951461792,-0.5359922647476196
1707663734291856400,13.0038564453125,4.60139799118042,8.508877754211426,-0.6915257573127747
1707663734308703200,13.020703125,4.730610370635986,8.523234367370605,0.04307080805301666
1707663734325550300,13.03755029296875,4.627718925476074,8.57348346710205,0.6149554252624512
1707663734342397400,13.0543974609375,4.386044025421143,8.518448829650879,0.27756741642951965
1707663734359244800,13.071244873046876,4.651647090911865,8.599804878234863,-0.019142581149935722
1707663734376091400,13.08809130859375,4.661218643188477,8.755337715148926,-0.3517449200153351
1707663734392938500,13.1049384765625,4.651647090911865,8.513663291931152,-0.380458801984787
1707663734409785300,13.121785400390625,4.510470867156982,8.537590980529785,-0.11006984114646912
1707663734426632400,13.138632568359375,4.814359188079834,8.599804878234863,0.3278166949748993
1707663734443479600,13.1554794921875,4.7473602294921875,8.74337387084961,0.7848458290100098
1707663734460326400,13.172326416015625,4.319045066833496,8.561519622802734,-0.32542386651039124
1707663734477173500,13.189173583984376,4.646861553192139,8.46580696105957,-0.20338992774486542
1707663734494020600,13.2060205078125,4.730610370635986,8.484949111938477,-0.4378865361213684
1707663734510867500,13.222867431640625,4.610969066619873,8.614161491394043,0.009571290574967861
1707663734527714600,13.239714599609375,4.807180881500244,8.396414756774902,0.39481574296951294
1707663734544561700,13.256561767578125,4.716253280639648,8.499305725097656,0.13878370821475983
1707663734561408500,13.273408447265625,4.60857629776001,8.444271087646484,-0.059820566326379776
1707663734578255600,13.290255615234376,4.677968502044678,8.37009334564209,-0.7657032608985901
1707663734595102700,13.307102783203124,4.835894584655762,8.23848819732666,-0.4953143000602722
1707663734611949600,13.323949462890624,4.553541660308838,8.343772888183594,-0.16749759018421173
1707663734628796700,13.340796630859375,4.567898273468018,8.343772888183594,0.2847459018230438
1707663734645643800,13.357643798828125,4.730610370635986,8.2695951461792,-0.035892341285943985
1707663734662491000,13.374490966796875,4.553541660308838,8.537590980529785,-0.5048855543136597
1707663734679337700,13.391337646484375,4.644468784332275,8.37009334564209,-0.4259224236011505
1707663734696184800,13.408184814453126,4.383651256561279,8.38684368133545,-0.3158525824546814
1707663734713032000,13.425031982421874,4.4961137771606445,8.647661209106445,0.48095735907554626
1707663734729878800,13.441878662109374,4.773681163787842,8.762516975402832,0.5024927258491516
1707663734746726000,13.458725830078125,4.225724697113037,8.707481384277344,0.12203395366668701
1707663734763573000,13.475572998046875,4.603790760040283,8.432307243347168,-0.21296121180057526
1707663734780420000,13.492420166015625,4.797609329223633,8.652446746826172,-0.0933200865983963
1707663734797267000,13.509266845703126,4.6540398597717285,8.492127418518066,0.2273181527853012
1707663734814114000,13.526114013671876,4.493721008300781,8.745766639709473,0.6819544434547424
1707663734830961000,13.5429609375,4.567898273468018,8.717052459716797,0.7106683254241943
1707663734847808000,13.55980810546875,4.457828521728516,8.772088050842285,0.46899324655532837
1707663734864655000,13.576655029296875,4.453042984008789,8.767302513122559,0.19142581522464752
1707663734881502200,13.593502197265625,4.78803825378418,8.724231719970703,0.014356935396790504
1707663734898349000,13.61034912109375,4.436293125152588,8.717052459716797,0.41156548261642456
1707663734915196200,13.627196044921876,4.130012035369873,8.733802795410156,1.0504491329193115
1707663734932043300,13.644043212890624,4.847858905792236,8.858229637145996,0.34695929288864136
1707663734948890000,13.66089013671875,4.893322467803955,8.652446746826172,-0.20338992774486542
1707663734965737200,13.6777373046875,3.9385859966278076,8.71226692199707,-0.2105683982372284
1707663734982584300,13.694584228515625,4.493721008300781,8.740981101989746,-0.06699903309345245
1707663734999431400,13.711431396484375,5.044070243835449,8.8438720703125,0.09092725813388824
1707663735016278500,13.728278564453126,4.182653903961182,8.685946464538574,-0.04785645380616188
1707663735033125400,13.74512548828125,4.206582069396973,8.408378601074219,-0.20578274130821228
1707663735049972500,13.761972412109374,4.615755081176758,8.602197647094727,-0.6652047038078308
1707663735066819600,13.778819580078125,4.328616142272949,8.506484031677246,-0.3900300860404968
1707663735083666400,13.79566650390625,4.326223373413086,8.48734188079834,-0.4163511395454407
1707663735100513500,13.812513427734375,4.567898273468018,8.403593063354492,-0.40677985548973083
1707663735117360600,13.829360595703125,4.232903480529785,8.566305160522461,-0.2153540402650833
1707663735134207700,13.846207763671876,4.371686935424805,8.188239097595215,-0.4426721930503845
1707663735151054600,13.8630546875,4.453042984008789,8.288737297058105,-0.4378865361213684
1707663735167901700,13.879901611328124,4.118047714233398,8.248059272766113,-0.5455635786056519
1707663735184748800,13.896748779296875,4.510470867156982,8.415556907653809,-0.10767702013254166
1707663735201596000,13.913595947265625,4.503292083740234,8.614161491394043,-0.22013968229293823
1707663735218442800,13.93044287109375,4.4482574462890625,8.267202377319336,-0.09810572862625122
1707663735235289900,13.947289794921875,3.9218363761901855,8.662017822265625,-0.24406790733337402
1707663735252137000,13.964136962890626,4.855037212371826,8.539983749389648,-0.2967100143432617
1707663735268984300,13.980984375,4.656432628631592,8.800801277160645,-0.03349951654672623
1707663735285831000,13.997830810546875,4.122833251953125,8.551948547363281,0.04785645380616188
1707663735302678000,14.014677978515625,4.400400638580322,8.63330364227295,0.10049854964017868
1707663735319525000,14.031525146484375,4.610969066619873,8.614161491394043,-0.06939185410737991
1707663735336372200,14.048372314453125,4.402793884277344,8.714659690856934,0.1339980661869049
1707663735353219000,14.065218994140626,4.426722049713135,8.80798053741455,0.10289137065410614
1707663735370066200,14.082066162109374,4.46979284286499,8.638090133666992,0.24406790733337402
1707663735386913300,14.098913330078124,4.388436794281006,8.659625053405762,0.275174617767334
1707663735403760400,14.115760498046875,4.383651256561279,8.630910873413086,-0.12921242415905
1707663735420607500,14.132607421875,4.575077056884766,8.61176872253418,0.06699903309345245
1707663735437454300,14.149454345703125,4.42193603515625,8.602197647094727,0
1707663735454301400,14.166301513671876,4.3788652420043945,8.796015739440918,-0.04546362906694412
1707663735471148500,14.1831484375,4.6372904777526855,8.764909744262695,0.17228323221206665
1707663735487995600,14.19999560546875,4.316651821136475,8.702695846557617,0.17946170270442963
1707663735504842800,14.2168427734375,4.376472473144531,8.71226692199707,0.05503492057323456
1707663735521689600,14.233689697265625,4.510470867156982,8.671588897705078,-0.4977070987224579
1707663735538536700,14.25053662109375,4.182653903961182,8.745766639709473,-0.18424734473228455
1707663735555383800,14.2673837890625,4.6301116943359375,8.621339797973633,0.04785645380616188
1707663735572231000,14.28423095703125,4.515256404876709,8.793622970581055,-0.13878370821475983
1707663735589078000,14.301078125,4.216153621673584,8.738588333129883,0.16749759018421173
1707663735605924900,14.3179248046875,4.42193603515625,8.4562349319458,-0.40677985548973083
1707663735622772000,14.33477197265625,4.625326156616211,8.559126853942871,-0.35413774847984314
1707663735639619000,14.351619140625,4.350151538848877,8.544769287109375,-0.07417750358581543
1707663735656466200,14.368466064453125,4.369294166564941,8.492127418518066,0.02392822690308094
1707663735673313300,14.385313232421876,4.433900356292725,8.585447311401367,-0.3565305769443512
1707663735690160000,14.40216015625,4.3310089111328125,8.439485549926758,-0.10767702013254166
1707663735707007200,14.41900732421875,4.457828521728516,8.437092781066895,-0.26560330390930176
1707663735723854300,14.435854248046875,4.211368083953857,8.609375953674316,-0.31106695532798767
1707663735740701400,14.452701416015625,4.527220249176025,8.401200294494629,0.24406790733337402
1707663735757548500,14.469548583984375,4.390829563140869,8.635697364807129,0.14117653667926788
1707663735774395600,14.486395751953125,4.163511276245117,8.628518104553223,-0.06939185410737991
1707663735791242500,14.503242431640626,4.232903480529785,8.709874153137207,-0.12681959569454193
1707663735808089600,14.520089599609374,4.342973232269287,8.599804878234863,-0.6221339106559753
1707663735824936700,14.536936767578124,4.1730828285217285,8.666803359985352,0.4139583110809326
1707663735841783800,14.55378369140625,4.096512317657471,8.638090133666992,0.4450650215148926
1707663735858631000,14.570630859375,4.41475772857666,8.94676399230957,0.09092725813388824
1707663735875478000,14.58747802734375,4.486542224884033,8.80798053741455,0.01196411345154047
1707663735892324900,14.604324951171876,4.208974838256836,8.695517539978027,-0.5264210104942322
1707663735909172000,14.621171875,4.4961137771606445,8.798408508300781,-0.064606212079525
1707663735926019000,14.63801904296875,4.48414945602417,8.779266357421875,0.3613162338733673
1707663735942866200,14.6548662109375,4.311866283416748,8.80798053741455,0.4043870270252228
1707663735959713300,14.67171337890625,4.706682205200195,8.86062240600586,0.14356936514377594
1707663735976560400,14.688560302734375,4.426722049713135,8.700303077697754,-0.38763725757598877
1707663735993407500,14.705407470703125,4.287938117980957,8.444271087646484,-0.07417750358581543
1707663736010254300,14.72225439453125,4.177868366241455,8.396414756774902,0.14356936514377594
1707663736027101400,14.739101318359374,4.481756687164307,8.449056625366211,-0.09092725813388824
1707663736043948500,14.755948486328125,4.560719966888428,8.848658561706543,0.14835500717163086
1707663736060795600,14.772795654296875,4.500899314880371,8.47298526763916,0.04307080805301666
1707663736077642800,14.789642822265625,3.900300979614258,8.568697929382324,0.07178468257188797
1707663736094489900,14.80648974609375,4.144368648529053,8.566305160522461,-0.42352959513664246
1707663736111337000,14.8233369140625,4.9435715675354,8.427521705627441,-0.0933200865983963
1707663736128184000,14.84018408203125,4.046263217926025,8.683553695678711,0.42831525206565857
1707663736145031200,14.85703125,4.168296813964844,8.583054542541504,0.20338992774486542
1707663736161878300,14.873878173828125,4.347758769989014,8.657232284545898,-0.1579262912273407
1707663736178725000,14.89072509765625,4.433900356292725,8.394021987915039,-0.38763725757598877
1707663736195572200,14.907572265625,4.029513359069824,8.738588333129883,0.08135596662759781
1707663736212419300,14.92441943359375,4.4482574462890625,8.346165657043457,-0.26081767678260803
1707663736229266400,14.941266357421876,4.587040901184082,8.599804878234863,0.4163511395454407
1707663736246113500,14.958113525390624,4.132404804229736,8.80798053741455,0.06699903309345245
1707663736262960600,14.974960693359375,4.266402721405029,8.539983749389648,-0.5431707501411438
1707663736279807700,14.991807861328125,4.455435752868652,8.305487632751465,-0.4666004180908203
1707663736296654800,15.00865478515625,4.115654945373535,8.652446746826172,-0.07896314561367035
1707663736313502000,15.025501953125,4.319045066833496,8.934800148010254,0.14356936514377594
1707663736330349000,15.04234912109375,4.656432628631592,8.752944946289062,-0.04546362906694412
1707663736347196200,15.059196044921874,4.342973232269287,8.630910873413086,0.13878370821475983
1707663736364043300,15.076043212890625,3.9696927070617676,8.709874153137207,-0.5096712112426758
1707663736380890000,15.09289013671875,4.419543266296387,8.640482902526855,-0.09092725813388824
1707663736397737200,15.1097373046875,4.876572608947754,8.779266357421875,0.15074782073497772
1707663736414584300,15.126584228515625,4.366901397705078,8.683553695678711,0.5407779216766357
1707663736431431400,15.143431396484376,3.981656789779663,8.652446746826172,-0.10289137065410614
1707663736448278500,15.160278564453124,4.47697114944458,8.441878318786621,-0.24885354936122894
1707663736465125600,15.177125732421874,4.575077056884766,8.523234367370605,-0.36610186100006104
1707663736481972700,15.19397265625,4.144368648529053,8.415556907653809,0.02392822690308094
1707663736498819800,15.21081982421875,4.302295207977295,8.556734085083008,0.22971096634864807
1707663736515667000,15.2276669921875,4.6061835289001465,8.475378036499023,-0.17228323221206665
1707663736532514000,15.24451416015625,4.18983268737793,8.334200859069824,-0.26560330390930176
1707663736549361200,15.261361083984376,4.089334011077881,8.432307243347168,-0.1746760457754135
1707663736566208300,15.278208251953124,4.993820667266846,8.365307807922363,-0.16510476171970367
1707663736583055400,15.295055419921875,4.398007869720459,8.528019905090332,-0.040677983313798904
1707663736599902500,15.31190234375,4.039084434509277,8.300702095031738,-0.040677983313798904
1707663736616749600,15.32874951171875,4.78803825378418,8.525627136230469,-0.11724831163883209
1707663736633596700,15.3455966796875,4.1659040451049805,8.80798053741455,-0.02392822690308094
1707663736650443800,15.36244384765625,3.9792640209198,8.920442581176758,0.019142581149935722
1707663736667291000,15.379290771484374,4.675575256347656,8.693124771118164,0.07896314561367035
1707663736684138000,15.396137939453125,4.204189300537109,9.116654396057129,0.23210379481315613
1707663736700985000,15.412985107421875,4.046263217926025,8.982656478881836,0.37088751792907715
1707663736717832000,15.42983203125,4.627718925476074,8.891729354858398,0.11964113265275955
1707663736734679300,15.44667919921875,4.5200419425964355,8.846264839172363,0.3158525824546814
1707663736751526400,15.4635263671875,4.163511276245117,9.001798629760742,-0.06939185410737991
1707663736768373500,15.48037353515625,4.551148891448975,8.793622970581055,0.4091726839542389
1707663736785220600,15.497220703125,4.48414945602417,8.877371788024902,0.5934200286865234
1707663736802067700,15.514067626953125,4.311866283416748,8.870193481445312,-0.11246266216039658
1707663736818914800,15.530914794921875,4.551148891448975,8.62612533569336,-0.031106693670153618
1707663736835762000,15.547761962890625,4.405186653137207,8.504091262817383,0.3565305769443512
1707663736852609000,15.564609130859376,4.0797624588012695,8.621339797973633,0.3565305769443512
1707663736869456100,15.5814560546875,4.237689018249512,8.731410026550293,0.2153540402650833
1707663736886303200,15.59830322265625,4.426722049713135,8.650053977966309,-0.2727817893028259
1707663736903150300,15.615150390625,4.132404804229736,8.657232284545898,-0.3086741268634796
1707663736919997400,15.63199755859375,3.7950167655944824,8.48016357421875,0.20099709928035736
1707663736936844500,15.648844482421875,4.3070807456970215,8.506484031677246,-0.13639089465141296
1707663736953691600,15.665691650390626,4.570291042327881,8.48734188079834,-0.24167509377002716
1707663736970538800,15.682538818359374,4.0797624588012695,8.7505521774292,-0.11246266216039658
1707663736987385900,15.6993857421875,4.295116424560547,8.291130065917969,-0.3158525824546814
1707663737004233000,15.71623291015625,4.426722049713135,8.319844245910645,-0.6293123364448547
1707663737021080000,15.733080078125,4.47697114944458,8.475378036499023,-0.41156548261642456
1707663737037927200,15.74992724609375,4.314259052276611,8.384450912475586,-0.2799602448940277
1707663737054774300,15.766774169921876,4.086941242218018,8.425128936767578,-0.14356936514377594
1707663737071621400,15.783621337890626,4.42193603515625,8.374878883361816,0.05503492057323456
1707663737088468500,15.800468505859374,4.326223373413086,8.458627700805664,-0.38763725757598877
1707663737105315600,15.817315673828125,4.106083869934082,8.401200294494629,-0.2727817893028259
1707663737122162700,15.83416259765625,4.271188259124756,8.291130065917969,-0.20578274130821228
1707663737139009800,15.851009765625,4.285545349121094,8.327022552490234,0.10767702013254166
1707663737155857000,15.86785693359375,4.12761926651001,8.470592498779297,0.14835500717163086
1707663737172704300,15.884704345703126,4.390829563140869,8.664410591125488,-0.014356935396790504
1707663737189551000,15.901551025390624,4.776073932647705,8.561519622802734,-0.24406790733337402
1707663737206398500,15.9183984375,3.972085475921631,8.752944946289062,0.12203395366668701
1707663737223245600,15.93524560546875,4.089334011077881,8.544769287109375,0.3900300860404968
1707663737240092700,15.9520927734375,4.567898273468018,8.97787094116211,0.16510476171970367
1707663737256939800,15.968939697265625,4.711467742919922,8.982656478881836,0.08853443711996078
1707663737273787000,15.985786865234376,4.177868366241455,8.958727836608887,-0.0526420995593071
1707663737290634000,16.002634033203126,4.508078098297119,8.63330364227295,0.16749759018421173
1707663737307481000,16.019481201171875,4.431507587432861,9.056833267211914,0.4259224236011505
1707663737324328200,16.036328125,4.275974273681641,9.135796546936035,0.46899324655532837
1707663737341175300,16.05317529296875,4.59421968460083,8.882157325744629,0.07178468257188797
1707663737358022400,16.0700224609375,4.661218643188477,8.80798053741455,0.14117653667926788
1707663737374869500,16.086869384765624,4.077369689941406,8.666803359985352,-0.038285162299871445
1707663737391716900,16.103716796875,4.175475597381592,8.839086532592773,0.2991028428077698
1707663737408564000,16.12056396484375,5.077569484710693,8.628518104553223,-0.01196411345154047
1707663737425411000,16.1374111328125,4.42193603515625,8.776873588562012,0.38763725757598877
1707663737442258200,16.154258056640625,3.8668015003204346,8.571090698242188,0.07178468257188797
1707663737459105300,16.171105224609374,4.3788652420043945,8.544769287109375,-0.11964113265275955
1707663737475952400,16.187952392578126,4.666004180908203,8.630910873413086,0.21296121180057526
1707663737492799500,16.204799560546874,4.01754903793335,8.616554260253906,0.09810572862625122
1707663737509646600,16.221646484375,4.242474555969238,8.49452018737793,0.12681959569454193
1707663737526494000,16.238493896484375,4.508078098297119,8.353343963623047,-0.059820566326379776
1707663737543341000,16.255341064453123,3.840480327606201,8.609375953674316,-0.1986042857170105
1707663737560188200,16.272188232421875,4.359723091125488,8.511270523071289,-0.1986042857170105
1707663737577035300,16.28903515625,4.54636287689209,8.72183895111084,-0.04307080805301666
1707663737593882400,16.30588232421875,4.077369689941406,8.492127418518066,-0.4378865361213684
1707663737610729500,16.3227294921875,3.955335855484009,8.642875671386719,0.2512463629245758
1707663737627576600,16.33957666015625,4.156332969665527,8.599804878234863,-0.4426721930503845
1707663737644423700,16.356423583984373,4.398007869720459,8.609375953674316,-0.48574298620224
1707663737661271000,16.37327099609375,4.163511276245117,8.791230201721191,-0.22013968229293823
1707663737678118100,16.3901181640625,4.333401679992676,8.595019340515137,-0.4019941985607147
1707663737694965200,16.40696533203125,4.048655986785889,8.652446746826172,-0.23449662327766418
1707663737711812400,16.423812255859374,4.005585193634033,8.83669376373291,-0.3684946894645691
1707663737728659500,16.440659423828127,4.589433670043945,8.94676399230957,0.11724831163883209
1707663737745506600,16.457506591796875,4.266402721405029,8.666803359985352,-0.42831525206565857
1707663737762353700,16.474353759765624,3.9194436073303223,8.666803359985352,-0.19142581522464752
1707663737779201000,16.491200927734376,4.6372904777526855,8.48734188079834,-0.14356936514377594
1707663737796048100,16.508048095703124,4.247260093688965,8.958727836608887,-0.07657032459974289
1707663737812895200,16.524895263671876,4.266402721405029,8.511270523071289,0.04785645380616188
1707663737829742300,16.541742431640625,4.661218643188477,8.60459041595459,-0.04307080805301666
1707663737846589400,16.55858935546875,4.182653903961182,8.516056060791016,-0.02392822690308094
1707663737863436500,16.5754365234375,3.862015724182129,8.446663856506348,-0.02632104977965355
1707663737880284000,16.592283935546874,4.627718925476074,8.71226692199707,0.35413774847984314
1707663737897131000,16.609131103515626,4.656432628631592,8.863015174865723,-0.04785645380616188
1707663737913978000,16.62597802734375,4.00319242477417,8.571090698242188,0.06699903309345245
1707663737930825200,16.6428251953125,4.187439441680908,8.578269004821777,0.30149564146995544
1707663737947672300,16.65967236328125,4.517649173736572,8.525627136230469,0.11006984114646912
1707663737964519700,16.676519775390624,4.1730828285217285,8.726624488830566,0.4570291340351105
1707663737981366800,16.69336669921875,4.335794448852539,8.590232849121094,0.28953152894973755
1707663737998214000,16.7102138671875,4.711467742919922,8.585447311401367,0.06699903309345245
1707663738015061000,16.72706103515625,3.8333017826080322,8.676374435424805,0.07417750358581543
1707663738031908000,16.743908203125,4.039084434509277,8.178668022155762,0.02871387079358101
1707663738048755500,16.76075537109375,4.749752998352051,8.760123252868652,0.3924229145050049
1707663738065602600,16.7776025390625,3.7567315101623535,8.760123252868652,0.4211367964744568
1707663738082449700,16.79444970703125,4.177868366241455,8.475378036499023,-0.05742774158716202
1707663738099296800,16.811296875,5.00578498840332,8.571090698242188,-0.363709032535553
1707663738116143900,16.828143798828126,3.8763725757598877,8.693124771118164,-0.4618147611618042
1707663738132991200,16.8449912109375,4.1491546630859375,8.46341323852539,0.07896314561367035
1707663738149838300,16.86183837890625,4.823930263519287,8.645268440246582,-0.22013968229293823
1707663738166685400,16.878685546875,4.347758769989014,8.982656478881836,-0.08374879509210587
1707663738183532500,16.895532470703124,4.194618225097656,8.733802795410156,-0.380458801984787
1707663738200379600,16.912379638671876,4.570291042327881,8.851051330566406,-0.5383850932121277
1707663738217227000,16.92922705078125,4.443471431732178,8.769695281982422,-0.23688943684101105
1707663738234074000,16.94607421875,3.864408493041992,8.784051895141602,-0.5288137793540955
1707663738250921200,16.962921142578125,4.627718925476074,8.93240737915039,-0.14117653667926788
1707663738267768300,16.979768310546874,4.876572608947754,9.028120040893555,-0.5455635786056519
1707663738284615400,16.996615478515626,3.5676984786987305,8.908478736877441,-0.5120640397071838
1707663738301462800,17.013462890625,4.285545349121094,8.616554260253906,-0.35892340540885925
1707663738318310000,17.030309814453126,4.742574691772461,8.97787094116211,0.14117653667926788
1707663738335157000,17.047156982421875,3.9290146827697754,8.812766075134277,-0.08614161610603333
1707663738352004000,17.064004150390623,4.06540584564209,8.592626571655273,-0.07178468257188797
1707663738368851500,17.0808515625,4.816751956939697,8.561519622802734,-0.15074782073497772
1707663738385698600,17.097698486328124,4.005585193634033,8.563912391662598,-0.10289137065410614
1707663738402545700,17.114545654296876,3.8500516414642334,8.38684368133545,0.349352091550827
1707663738419392800,17.131392822265624,4.776073932647705,8.408378601074219,0.2679961323738098
1707663738436240100,17.148240234375,4.40757942199707,8.695517539978027,0.38285163044929504
1707663738453087200,17.165087158203125,3.806980848312378,8.647661209106445,0.06939185410737991
1707663738469934300,17.181934326171874,4.498506546020508,8.446663856506348,0.13160525262355804
1707663738486781400,17.198781494140626,4.338187217712402,8.4562349319458,-0.03349951654672623
1707663738503628800,17.21562890625,3.6849467754364014,8.396414756774902,0.5000999569892883
1707663738520476000,17.232475830078126,4.168296813964844,8.71226692199707,0.5144568681716919
1707663738537323000,17.249322998046875,4.66361141204834,8.685946464538574,-0.1866401731967926
1707663738554170000,17.266170166015623,4.204189300537109,8.516056060791016,0.19142581522464752
1707663738571017500,17.283017578125,3.7567315101623535,8.597412109375,0.5120640397071838
1707663738587864600,17.299864501953124,4.639683246612549,8.46580696105957,-0.06699903309345245
1707663738604711700,17.316711669921876,4.486542224884033,8.654839515686035,-0.16271193325519562
1707663738621559000,17.33355908203125,4.153940200805664,8.748159408569336,0.09810572862625122
1707663738638406100,17.35040625,4.651647090911865,8.800801277160645,-0.04546362906694412
1707663738655253200,17.367253173828125,4.450650215148926,8.47298526763916,-0.24167509377002716
1707663738672100400,17.384100341796874,4.29033088684082,8.561519622802734,0.019142581149935722
1707663738688947700,17.40094775390625,4.613361835479736,8.918049812316895,0.26081767678260803
1707663738705794800,17.417794921875,4.60139799118042,8.83669376373291,-0.20578274130821228
1707663738722642000,17.434641845703126,4.012763500213623,8.451449394226074,-0.11006984114646912
1707663738739489000,17.451489013671875,4.2209391593933105,8.532805442810059,-0.5958128571510315
1707663738756336400,17.46833642578125,4.517649173736572,8.817551612854004,0.09092725813388824
1707663738773183500,17.48518359375,4.311866283416748,8.48016357421875,0.3326023519039154
1707663738790030600,17.502030517578124,4.426722049713135,8.58066177368164,-0.1698904037475586
1707663738806878000,17.5188779296875,4.292723655700684,8.652446746826172,-0.4019941985607147
1707663738823725000,17.53572509765625,3.8500516414642334,8.563912391662598,0.11485548317432404
1707663738840572200,17.552572265625,4.34536600112915,8.738588333129883,-0.14356936514377594
1707663738857419500,17.56941943359375,4.634897232055664,8.776873588562012,-0.4713860750198364
1707663738874266600,17.5862666015625,4.113262176513672,8.685946464538574,-0.035892341285943985
1707663738891113700,17.60311376953125,4.249652862548828,8.532805442810059,0.1746760457754135
1707663738907960800,17.6199609375,4.2209391593933105,8.879764556884766,-0.2799602448940277
1707663738924808200,17.63680810546875,4.211368083953857,8.583054542541504,-0.275174617767334
1707663738941655300,17.6536552734375,4.450650215148926,8.652446746826172,-0.1818545162677765
1707663738958502400,17.67050244140625,4.304687976837158,8.956335067749023,-0.48095735907554626
1707663738975349800,17.687349853515624,4.311866283416748,8.69791030883789,0.05742774158716202
1707663738992196900,17.70419677734375,4.235296249389648,8.662017822265625,0.12921242415905
1707663739009044000,17.7210439453125,4.280759811401367,8.800801277160645,-0.30628129839897156
1707663739025891000,17.73789111328125,4.216153621673584,8.609375953674316,-0.4546363055706024
1707663739042738400,17.754738525390625,4.625326156616211,8.401200294494629,-0.15314064919948578
1707663739059585500,17.77158544921875,4.536791801452637,8.82233715057373,0.363709032535553
1707663739076433000,17.788432861328126,3.9768712520599365,8.69791030883789,0.05024927482008934
1707663739093280000,17.805280029296874,4.386044025421143,8.434700012207031,0.07178468257188797
1707663739110127000,17.822127197265626,4.682754039764404,8.523234367370605,-0.349352091550827
1707663739126974200,17.83897412109375,4.132404804229736,8.762516975402832,0.031106693670153618
1707663739143821600,17.855821533203127,4.295116424560547,8.575876235961914,0.04546362906694412
1707663739160668700,17.872668701171875,4.835894584655762,8.307880401611328,-0.10049854964017868
1707663739177515800,17.889515869140624,3.9050865173339844,8.446663856506348,0.24646073579788208
1707663739194363100,17.906363037109376,3.900300979614258,8.676374435424805,-0.10767702013254166
1707663739211210200,17.923210205078124,5.065605640411377,8.513663291931152,0.016749758273363113
1707663739228057600,17.9400576171875,4.409972190856934,8.623732566833496,-0.4546363055706024
1707663739244904700,17.95690478515625,3.6681971549987793,8.403593063354492,-0.040677983313798904
1707663739261751800,17.973751708984373,4.156332969665527,8.446663856506348,-0.016749758273363113
1707663739278599200,17.99059912109375,4.713860511779785,8.80798053741455,0.040677983313798904
1707663739295446300,18.0074462890625,4.29033088684082,9.035298347473145,0.10049854964017868
1707663739312293400,18.02429345703125,4.01754903793335,8.731410026550293,-0.6747759580612183
1707663739329140500,18.041140380859375,4.4650068283081055,8.446663856506348,-0.5934200286865234
1707663739345987800,18.05798779296875,4.18983268737793,8.638090133666992,-0.1339980661869049
1707663739362835000,18.0748349609375,4.125226020812988,9.030512809753418,-0.014356935396790504
1707663739379682000,18.09168212890625,4.840680122375488,8.511270523071289,0.20099709928035736
1707663739396529400,18.108529296875,4.232903480529785,8.482556343078613,-0.49292147159576416
1707663739413376500,18.12537646484375,4.232903480529785,8.429914474487305,-0.38763725757598877
1707663739430223600,18.1422236328125,4.847858905792236,8.894122123718262,-0.26560330390930176
1707663739447071000,18.159071044921873,4.773681163787842,8.566305160522461,-0.22492532432079315
1707663739463918000,18.17591796875,3.9864425659179688,8.82233715057373,0.3206382393836975
1707663739480765400,18.192765380859374,4.278367042541504,8.516056060791016,0.1866401731967926
1707663739497612500,18.209612548828126,4.529613494873047,8.650053977966309,-0.2225325107574463
1707663739514459600,18.226459716796874,4.522434711456299,8.62612533569336,-0.3326023519039154
1707663739531307000,18.24330712890625,4.091726779937744,8.592626571655273,-0.07417750358581543
1707663739548154000,18.260154052734375,3.9744784832000732,8.958727836608887,0.33738797903060913
1707663739565001200,18.277001220703124,4.4482574462890625,8.86062240600586,0.05742774158716202
1707663739581848600,18.2938486328125,4.453042984008789,8.879764556884766,-0.38763725757598877
1707663739598695700,18.31069580078125,4.074976921081543,8.784051895141602,0.03349951654672623
1707663739615542800,18.327542724609376,4.043870449066162,8.6907320022583,-0.1818545162677765
1707663739632390100,18.34439013671875,4.153940200805664,9.030512809753418,0.02153540402650833
1707663739649237200,18.3612373046875,4.445864677429199,8.61176872253418,0.08614161610603333
1707663739666084400,18.37808447265625,4.060619831085205,9.028120040893555,0.18424734473228455
1707663739682931700,18.394931640625,4.063013076782227,8.408378601074219,-0.22971096634864807
1707663739699778800,18.41177880859375,4.48414945602417,8.717052459716797,-0.13639089465141296
1707663739716626200,18.428626220703126,4.304687976837158,8.441878318786621,-0.2799602448940277
1707663739733473300,18.445473388671875,4.070191383361816,8.60459041595459,0.11964113265275955
1707663739750320400,18.4623203125,4.280759811401367,8.544769287109375,0.5551348328590393
1707663739767167700,18.479167724609376,4.457828521728516,8.484949111938477,0.2392822653055191
1707663739784014800,18.496014892578124,4.264009952545166,8.685946464538574,0.04785645380616188
1707663739800862000,18.512862060546876,4.225724697113037,8.329415321350098,-0.4091726839542389
1707663739817709300,18.529709228515625,4.646861553192139,8.425128936767578,0.19621145725250244
1707663739834556400,18.546556396484377,4.139583110809326,8.934800148010254,0.0933200865983963
1707663739851403500,18.563403564453125,4.527220249176025,8.504091262817383,0.3445664644241333
1707663739868251000,18.5802509765625,4.350151538848877,8.944371223449707,0.5718846321105957
1707663739885098000,18.597097900390626,4.146761417388916,8.69791030883789,-0.24646073579788208
1707663739901945300,18.6139453125,4.402793884277344,8.578269004821777,-0.39481574296951294
1707663739918792400,18.63079248046875,4.567898273468018,8.662017822265625,-0.29431718587875366
1707663739935639600,18.6476396484375,4.096512317657471,8.803194046020508,0.24646073579788208
1707663739952487000,18.66448681640625,4.1491546630859375,8.891729354858398,0.016749758273363113
1707663739969334000,18.681333984375,4.613361835479736,8.62612533569336,-0.17228323221206665
1707663739986181000,18.69818115234375,4.029513359069824,8.58784008026123,-0.8039883971214294
1707663740003028500,18.715028564453124,4.089334011077881,8.774480819702148,-0.32303106784820557
1707663740019875600,18.73187548828125,4.752145767211914,8.571090698242188,-0.24885354936122894
1707663740036723000,18.748722900390625,4.235296249389648,8.556734085083008,-0.28953152894973755
1707663740053570000,18.765570068359374,3.8907296657562256,8.38684368133545,-0.33738797903060913
1707663740070417200,18.782417236328126,4.675575256347656,8.537590980529785,-0.28953152894973755
1707663740087264500,18.799264404296874,4.522434711456299,8.678768157958984,-0.11964113265275955
1707663740104111600,18.816111572265626,4.106083869934082,8.329415321350098,-0.4713860750198364
1707663740120959000,18.832958984375,4.192225456237793,8.274380683898926,-0.43549370765686035
1707663740137806000,18.84980615234375,4.3549370765686035,8.559126853942871,0.12442677468061447
1707663740154653200,18.866653076171875,4.491328239440918,8.650053977966309,0.12681959569454193
1707663740171500300,18.883500244140624,4.048655986785889,8.566305160522461,-0.019142581149935722
1707663740188347600,18.90034765625,4.338187217712402,8.504091262817383,-0.06699903309345245
1707663740205194800,18.91719482421875,4.450650215148926,8.623732566833496,-0.16271193325519562
1707663740222042000,18.9340419921875,4.1419758796691895,8.595019340515137,-0.14356936514377594
1707663740238889200,18.95088916015625,4.218546390533447,8.666803359985352,0.11724831163883209
1707663740255736600,18.967736572265625,4.563112735748291,8.559126853942871,0.0526420995593071
1707663740272583700,18.984583740234374,4.510470867156982,8.676374435424805,0.059820566326379776
1707663740289431000,19.00143115234375,3.9529430866241455,8.858229637145996,-0.035892341285943985
1707663740306278100,19.018278076171875,4.512863636016846,8.700303077697754,0.04546362906694412
1707663740323125200,19.035125244140627,4.814359188079834,8.678768157958984,0.2847459018230438
1707663740339972400,19.051972412109375,4.256831645965576,8.645268440246582,-0.11724831163883209
1707663740356819700,19.06881982421875,4.1491546630859375,8.74337387084961,0.09571290761232376
1707663740373666800,19.085666748046876,4.625326156616211,8.475378036499023,-0.2512463629245758
1707663740390514200,19.10251416015625,4.185046672821045,8.858229637145996,-0.24646073579788208
1707663740407361300,19.119361328125,4.409972190856934,8.489734649658203,0.23210379481315613
1707663740424208600,19.136208740234373,4.409972190856934,8.647661209106445,0.04546362906694412
1707663740441055700,19.1530556640625,4.295116424560547,8.724231719970703,0.11246266216039658
1707663740457902800,19.16990283203125,4.40757942199707,8.748159408569336,-0.3852444589138031
1707663740474750200,19.186750244140626,4.302295207977295,8.870193481445312,-0.24406790733337402
1707663740491597300,19.203597412109374,4.491328239440918,8.671588897705078,-0.5264210104942322
1707663740508444700,19.220444580078127,4.386044025421143,8.640482902526855,-0.21774685382843018
1707663740525291800,19.237291748046875,4.1419758796691895,8.772088050842285,-0.11006984114646912
1707663740542139000,19.254138916015624,4.694717884063721,8.848658561706543,-0.08135596662759781
1707663740558986200,19.270986328125,4.443471431732178,8.74337387084961,-0.4570291340351105
1707663740575833300,19.287833251953124,4.232903480529785,8.685946464538574,-0.3038884699344635
1707663740592680400,19.304680419921876,4.498506546020508,8.58066177368164,-0.040677983313798904
1707663740609527800,19.32152783203125,4.206582069396973,8.60459041595459,-0.3086741268634796
1707663740626375000,19.338375,4.390829563140869,8.796015739440918,0.04307080805301666
1707663740643222300,19.35522216796875,4.455435752868652,8.489734649658203,-0.13878370821475983
1707663740660069400,19.3720693359375,4.1659040451049805,8.374878883361816,-0.38285163044929504
1707663740676916500,19.38891650390625,3.94097900390625,8.621339797973633,-0.24885354936122894
1707663740693763800,19.405763916015626,4.584648132324219,8.62612533569336,-0.20817556977272034
1707663740710611000,19.42261083984375,4.29033088684082,8.72183895111084,0.14117653667926788
1707663740727458300,19.439458251953123,3.9792640209198,8.827122688293457,0.014356935396790504
1707663740744305400,19.456305419921875,4.043870449066162,8.614161491394043,-0.18903298676013947
1707663740761152500,19.473152587890624,4.180261135101318,8.922835350036621,-0.0933200865983963
1707663740778000000,19.489999755859376,4.3070807456970215,9.07119083404541,0.13878370821475983
1707663740794847000,19.506846923828125,4.098905086517334,8.901300430297852,0.06939185410737991
1707663740811694300,19.5236943359375,4.237689018249512,8.561519622802734,0.38763725757598877
1707663740828541400,19.54054150390625,4.110869407653809,8.764909744262695,0.3852444589138031
1707663740845388800,19.557388916015626,3.9433717727661133,8.748159408569336,-0.4307080805301666
1707663740862236000,19.57423583984375,4.381258487701416,8.556734085083008,0.17228323221206665
1707663740879083000,19.5910830078125,4.668396949768066,8.60459041595459,0.11485548317432404
1707663740895930000,19.60793017578125,4.326223373413086,8.695517539978027,0.05024927482008934
1707663740912777500,19.624777587890627,3.933800458908081,8.48016357421875,0.1339980661869049
1707663740929624600,19.64162451171875,4.369294166564941,8.358129501342773,0.27756741642951965
1707663740946472000,19.658471923828124,4.7952165603637695,8.583054542541504,-0.4091726839542389
1707663740963319000,19.675319091796876,4.297509670257568,8.446663856506348,0.0023928226437419653
1707663740980166400,19.69216650390625,4.211368083953857,8.260024070739746,-0.04785645380616188
1707663740997013500,19.709013427734376,4.493721008300781,8.592626571655273,-0.23688943684101105
1707663741013860600,19.725860595703125,4.388436794281006,8.547162055969238,0.2273181527853012
1707663741030708000,19.7427080078125,4.12761926651001,8.46341323852539,-0.349352091550827
1707663741047555000,19.75955517578125,4.709074974060059,8.93240737915039,-0.4618147611618042
1707663741064402400,19.77640234375,4.622933387756348,8.551948547363281,0.007178467698395252
1707663741081249500,19.79324951171875,3.8596229553222656,8.74337387084961,0.4426721930503845
1707663741098096600,19.8100966796875,4.240081787109375,8.798408508300781,0.23688943684101105
1707663741114944000,19.826944091796875,4.515256404876709,9.109476089477539,-0.17946170270442963
1707663741131791000,19.843791015625,4.273581027984619,8.745766639709473,-0.6580262184143066
1707663741148638500,19.860638427734376,3.950550079345703,8.803194046020508,-0.605384111404419
1707663741165485600,19.877485595703124,4.3549370765686035,9.126225471496582,0.062213387340307236
1707663741182332700,19.894332763671876,4.505684852600098,8.96112060546875,0.4833501875400543
1707663741199180000,19.911179931640625,4.2592244148254395,8.824729919433594,-0.24885354936122894
1707663741216027100,19.928027099609373,4.639683246612549,8.616554260253906,-0.5168496966362
1707663741232874200,19.944874267578125,4.261617183685303,8.34855842590332,-0.07896314561367035
1707663741249721600,19.9617216796875,4.153940200805664,8.303094863891602,-0.08374879509210587
1707663741266568700,19.978568603515626,4.457828521728516,8.57348346710205,0.14117653667926788
1707663741283416000,19.995416015625,4.555934429168701,8.441878318786621,0.15074782073497772
1707663741300263200,20.01226318359375,4.40757942199707,8.300702095031738,0.2560320198535919
1707663741317110300,20.0291103515625,4.0319061279296875,8.23848819732666,0.09092725813388824
1707663741333957600,20.04595751953125,4.01754903793335,8.236095428466797,-0.11246266216039658
1707663741350804700,20.0628046875,4.488935470581055,8.4562349319458,-0.19621145725250244
1707663741367652000,20.079652099609376,4.565505504608154,8.3629150390625,-0.016749758273363113
1707663741384499200,20.096499267578125,4.12761926651001,8.374878883361816,0.31824541091918945
1707663741401346300,20.11334619140625,4.125226020812988,8.57348346710205,0.13878370821475983
1707663741418193700,20.130193603515625,4.357329845428467,8.583054542541504,-0.08853443711996078
1707663741435040800,20.147040771484374,4.340580463409424,8.73619556427002,-0.1579262912273407
1707663741451887900,20.163887939453126,4.551148891448975,8.508877754211426,-0.23688943684101105
1707663741468735200,20.1807353515625,4.529613494873047,8.49452018737793,-0.20099709928035736
1707663741485582300,20.197582275390626,4.051048755645752,8.83669376373291,0.4378865361213684
1707663741502429700,20.2144296875,4.208974838256836,8.568697929382324,-0.18903298676013947
1707663741519276800,20.23127685546875,4.768895626068115,9.104690551757812,-0.4043870270252228
1707663741536124200,20.248124267578124,4.230510234832764,9.154939651489258,-0.10049854964017868
1707663741552971300,20.26497119140625,4.230510234832764,8.834300994873047,-0.3086741268634796
1707663741569818400,20.281818359375,3.7423746585845947,9.066405296325684,-0.2679961323738098
1707663741586665700,20.298665771484377,4.237689018249512,9.056833267211914,-0.3038884699344635
1707663741603512800,20.315512939453125,4.271188259124756,9.384650230407715,0.08135596662759781
1707663741620360000,20.33235986328125,4.261617183685303,8.800801277160645,-0.3206382393836975
1707663741637207300,20.349207275390626,4.4650068283081055,8.516056060791016,-0.37806597352027893
1707663741654054400,20.366054443359374,4.237689018249512,8.896514892578125,-0.1579262912273407
1707663741670901800,20.38290185546875,4.41475772857666,8.568697929382324,0.1459621787071228
1707663741687748900,20.399748779296875,4.436293125152588,8.398807525634766,-0.064606212079525
1707663741704596000,20.416595947265623,4.436293125152588,8.123632431030273,-0.23688943684101105
1707663741721443300,20.433443359375,4.417150497436523,8.578269004821777,0.16510476171970367
1707663741738290400,20.45029052734375,4.445864677429199,8.568697929382324,-0.05742774158716202
1707663741755137500,20.467137451171876,4.390829563140869,8.154739379882812,0.20578274130821228
1707663741771985000,20.48398486328125,4.223331928253174,8.518448829650879,0.02392822690308094
1707663741788832000,20.50083203125,4.551148891448975,8.724231719970703,-0.13878370821475983
1707663741805679400,20.517679443359373,4.4961137771606445,8.638090133666992,-0.16031911969184875
1707663741822526500,20.5345263671875,4.443471431732178,8.724231719970703,-0.1339980661869049
1707663741839373600,20.55137353515625,4.326223373413086,8.6907320022583,-0.0933200865983963
1707663741856221000,20.568220947265626,4.2281174659729,8.724231719970703,-0.3206382393836975
1707663741873068000,20.585068115234375,4.596612453460693,8.695517539978027,-0.1746760457754135
1707663741889915400,20.601915283203127,4.548755645751953,8.767302513122559,-0.4570291340351105
1707663741906762500,20.618762451171875,4.3549370765686035,8.812766075134277,-0.6149554252624512
1707663741923609600,20.635609619140624,4.108476638793945,8.740981101989746,-0.3445664644241333
1707663741940457000,20.65245703125,4.199403762817383,8.86780071258545,0.038285162299871445
1707663741957304000,20.669303955078124,4.658825874328613,8.884550094604492,-0.007178467698395252
1707663741974151200,20.686151123046876,4.137190341949463,8.834300994873047,-0.349352091550827
1707663741990998500,20.70299853515625,4.292723655700684,8.520841598510742,-0.4426721930503845
1707663742007845600,20.719845703125,4.273581027984619,8.702695846557617,-0.4139583110809326
1707663742024692700,20.736692626953126,4.067798614501953,8.551948547363281,-0.23449662327766418
1707663742041540000,20.7535400390625,4.4650068283081055,8.542376518249512,-0.03349951654672623
1707663742058387200,20.77038720703125,4.436293125152588,8.958727836608887,0.38285163044929504
1707663742075234600,20.787234619140627,4.106083869934082,8.62612533569336,0.3756731450557709
1707663742092081700,20.80408154296875,4.275974273681641,8.252845764160156,-0.18903298676013947
1707663742108928800,20.8209287109375,4.4961137771606445,8.298309326171875,-0.2967100143432617
1707663742125776100,20.837776123046876,4.199403762817383,8.61176872253418,0.12921242415905
1707663742142623200,20.854623291015624,4.357329845428467,8.422736167907715,0.2967100143432617
1707663742159470300,20.87147021484375,4.6995038986206055,8.547162055969238,0.6604190468788147
1707663742176317700,20.888317626953125,4.211368083953857,8.508877754211426,0.3756731450557709
1707663742193164800,20.905164794921873,3.759124279022217,8.451449394226074,-0.2632105052471161
1707663742210012000,20.922011962890625,4.6301116943359375,8.57348346710205,0.05024927482008934
1707663742226859300,20.938859375,4.589433670043945,8.437092781066895,0.01196411345154047
1707663742243706400,20.955706298828126,3.9672999382019043,8.671588897705078,0.37088751792907715
1707663742260553500,20.972553466796874,4.338187217712402,8.683553695678711,0.4977070987224579
1707663742277400800,20.98940087890625,4.778466701507568,8.590232849121094,0.3924229145050049
1707663742294248000,21.006248046875,3.8596229553222656,8.86062240600586,0.23449662327766418
1707663742311095300,21.02309521484375,4.35254430770874,8.135597229003906,-0.7202396392822266
1707663742327942400,21.0399423828125,4.931607246398926,8.549555778503418,-0.576670229434967
1707663742344789500,21.05678955078125,4.187439441680908,8.949156761169434,0.3756731450557709
1707663742361636900,21.073636962890625,4.1970109939575195,8.597412109375,0.576670229434967
1707663742378484000,21.09048388671875,4.438685894012451,8.831908226013184,0.07178468257188797
1707663742395331000,21.1073310546875,4.6301116943359375,8.592626571655273,-0.6771687865257263
1707663742412178400,21.124178466796874,4.163511276245117,8.719446182250977,-0.4259224236011505
1707663742429025500,21.141025634765626,4.208974838256836,8.671588897705078,-0.44027936458587646
1707663742445872600,21.15787255859375,4.778466701507568,8.745766639709473,0.3756731450557709
1707663742462720000,21.174719970703126,4.185046672821045,8.82951545715332,0.07417750358581543
1707663742479567000,21.191567138671875,3.981656789779663,8.69791030883789,0.07657032459974289
1707663742496414200,21.208414306640623,4.6540398597717285,8.683553695678711,-0.5072783827781677
1707663742513261600,21.225261474609376,4.433900356292725,9.001798629760742,-0.5982056856155396
1707663742530108700,21.242108642578124,4.376472473144531,8.616554260253906,-0.2727817893028259
1707663742546955800,21.258955810546876,4.60139799118042,8.61894702911377,-0.11964113265275955
1707663742563803100,21.27580322265625,4.474578380584717,8.551948547363281,0.2153540402650833
1707663742580650200,21.292650146484377,4.3310089111328125,8.353343963623047,-0.04546362906694412
1707663742597497300,21.309497314453125,4.304687976837158,8.659625053405762,-0.24646073579788208
1707663742614344700,21.3263447265625,4.833501815795898,8.274380683898926,-0.1339980661869049
1707663742631191800,21.34319189453125,4.192225456237793,8.535198211669922,-0.3158525824546814
1707663742648039000,21.360038818359374,4.089334011077881,8.439485549926758,-0.3086741268634796
1707663742664886300,21.37688623046875,4.778466701507568,8.319844245910645,0.2799602448940277
1707663742681733400,21.3937333984375,4.094119548797607,8.583054542541504,-0.13160525262355804
1707663742698580500,21.41058056640625,4.29033088684082,8.248059272766113,-0.05024927482008934
1707663742715427800,21.427427734375,4.486542224884033,8.537590980529785,-0.05503492057323456
1707663742732275000,21.44427490234375,4.304687976837158,8.353343963623047,-0.2799602448940277
1707663742749122000,21.4611220703125,4.187439441680908,8.37727165222168,0.009571290574967861
1707663742765969400,21.477969482421877,4.491328239440918,8.413164138793945,0.16510476171970367
1707663742782816500,21.49481640625,4.981856822967529,8.37009334564209,0.20338992774486542
1707663742799663600,21.51166357421875,4.216153621673584,8.499305725097656,-0.05503492057323456
1707663742816511000,21.528510986328126,3.682554006576538,8.23130989074707,-0.3732803463935852
1707663742833358000,21.545358154296874,5.154139995574951,8.432307243347168,0.13639089465141296
1707663742850205200,21.562205078125,4.941178798675537,8.915657043457031,0.29431718587875366
1707663742867052500,21.579052490234375,3.955335855484009,8.496912956237793,0.035892341285943985
1707663742883899600,21.595899658203123,4.089334011077881,8.4562349319458,-0.39481574296951294
