time,seconds_elapsed,z,y,x
1707663721334068000,0.04606787109375,0,0,0
1707663721344068000,0.056068115234375,-0.01996612548828125,0.8577847480773926,0.767469584941864
1707663721354068000,0.06606787109375,-0.23353147506713867,0.8256340026855469,0.9746339917182922
1707663721364068000,0.076068115234375,-0.23309707641601562,0.034639835357666016,0.07953059673309326
1707663721374068000,0.08606787109375,0.7453889846801758,-0.8341455459594727,-0.7072182893753052
1707663721384068000,0.096068115234375,0.4776954650878906,-1.8138818740844727,-0.3358968198299408
1707663721394068000,0.10606787109375,-0.2767767906188965,-1.4818098545074463,-0.5315427780151367
1707663721404068000,0.116068115234375,0.5347790718078613,-0.7764849662780762,-0.32314810156822205
1707663721414068000,0.12606787109375,1.2524166107177734,-0.4151301383972168,0.04115423932671547
1707663721424068000,0.136068115234375,1.6210880279541016,-0.4147346019744873,0.2780310809612274
1707663721434068000,0.14606787109375,2.1590023040771484,-0.5136785507202148,0.3622576594352722
1707663721444068000,0.156068115234375,2.399129867553711,-0.5133121013641357,0.08832544088363647
1707663721454068000,0.16606787109375,2.3221893310546875,-0.5144848823547363,-0.3583822250366211
1707663721464068000,0.176068115234375,1.9779605865478516,-0.6633162498474121,-0.9004970788955688
1707663721474068000,0.18606787109375,1.7956695556640625,-0.715228796005249,-1.0621262788772583
1707663721484068000,0.196068115234375,1.7145881652832031,-0.6874308586120605,-0.859544038772583
1707663721494068000,0.20606787109375,1.8362083435058594,-0.7122018337249756,-0.5558324456214905
1707663721504068000,0.216068115234375,1.551264762878418,-0.7319633960723877,-0.2491590976715088
1707663721514068000,0.22606787109375,1.424952507019043,-0.8982751369476318,-0.6784118413925171
1707663721524068000,0.236068115234375,0.49152088165283203,-1.4603631496429443,-0.8282192945480347
1707663721534068000,0.24606787109375,-0.7348098754882812,-0.7866418361663818,-1.798035979270935
1707663721544068000,0.256068115234375,-0.4764738082885742,-0.21689271926879883,-1.1411241292953491
1707663721554068000,0.26606787109375,-0.46424198150634766,-0.018543243408203125,0.24109232425689697
1707663721564068000,0.276068115234375,-0.3347740173339844,-0.11644601821899414,0.8921628594398499
1707663721574068000,0.28606787109375,-0.4073209762573242,-0.12027168273925781,0.9581417441368103
1707663721584068000,0.296068115234375,-0.40004825592041016,0.1778726577758789,0.9183285236358643
1707663721594068000,0.30606787109375,-0.7757320404052734,0.19218683242797852,1.4142217636108398
1707663721604068000,0.316068115234375,-0.6563358306884766,0.22327136993408203,1.409745216369629
1707663721614068000,0.32606787109375,-0.38018274307250977,0.3567953109741211,1.0334869623184204
1707663721624068000,0.336068115234375,0.17586994171142578,0.517479419708252,0.6073958873748779
1707663721634068000,0.34606787109375,0.2749900817871094,0.8495659828186035,0.2529115676879883
1707663721644068000,0.356068115234375,-0.04563331604003906,1.3735709190368652,-0.25214242935180664
1707663721654068000,0.36606787109375,-0.4363260269165039,1.770216941833496,-0.1912705898284912
1707663721664068000,0.376068115234375,-1.1988000869750977,1.971848487854004,0.36274468898773193
1707663721674068000,0.38606787109375,-1.8440685272216797,2.038262367248535,1.005423903465271
1707663721684068000,0.396068115234375,-1.7457060813903809,1.8031721115112305,0.5583356618881226
1707663721694068000,0.40606787109375,-1.3630313873291016,2.054375171661377,0.4559626579284668
1707663721704068000,0.416068115234375,0.02096414566040039,2.394275665283203,0.5398964881896973
1707663721714068000,0.42606787109375,0.8219413757324219,2.3840885162353516,0.9927031993865967
1707663721724068000,0.436068115234375,0.727259635925293,2.03574275970459,1.6896507740020752
1707663721734068000,0.44606787109375,0.042780399322509766,1.4281935691833496,2.152937650680542
1707663721744068000,0.456068115234375,-0.09992313385009766,0.6161885261535645,2.7379300594329834
1707663721754068000,0.46606787109375,0.5995492935180664,-0.3150515556335449,3.058516025543213
1707663721764068000,0.476068115234375,0.8732848167419434,-0.6537141799926758,1.934548020362854
1707663721774068000,0.48606787109375,0.5283651351928711,-0.5706610679626465,0.2693767547607422
1707663721784068000,0.496068115234375,-0.35761594772338867,-0.2980208396911621,-0.6823432445526123
1707663721794068000,0.50606787109375,-0.022341251373291016,0.4744749069213867,-2.217973470687866
1707663721804068000,0.516068115234375,0.5977110862731934,1.1070752143859863,-2.709357976913452
1707663721814068000,0.52606787109375,0.4215817451477051,0.38266563415527344,-2.1932976245880127
1707663721824068000,0.536068115234375,-0.6289596557617188,-0.49578046798706055,-1.8375539779663086
1707663721834068000,0.54606787109375,-1.6894240379333496,-0.8525533676147461,-1.272693157196045
1707663721844068000,0.556068115234375,-1.9819912910461426,-0.9993982315063477,-0.45936083793640137
1707663721854068000,0.56606787109375,-2.3154959678649902,-1.0518388748168945,0.17587971687316895
1707663721864068000,0.576068115234375,-3.3368289470672607,-1.1677312850952148,1.6817522048950195
1707663721874068000,0.58606787109375,-2.584470272064209,-0.9788923263549805,2.194359064102173
1707663721884068000,0.596068115234375,-0.8667740821838379,-1.1310558319091797,1.3840628862380981
1707663721894068000,0.60606787109375,0.5346570014953613,-1.2455873489379883,0.005952596664428711
1707663721904068000,0.616068115234375,0.51885986328125,-1.9738130569458008,-0.1809391975402832
1707663721914068000,0.62606787109375,-0.1125178337097168,-2.6752500534057617,-0.4228229522705078
1707663721924068000,0.636068115234375,-0.7303681373596191,-2.4836483001708984,-1.083526611328125
1707663721934068000,0.64606787109375,-0.49468517303466797,-2.1129941940307617,-1.572148323059082
1707663721944068000,0.656068115234375,-0.2586236000061035,-1.9317941665649414,-0.7420077323913574
1707663721954068000,0.66606787109375,-0.43117475509643555,-2.0338149070739746,0.44048213958740234
1707663721964068000,0.676068115234375,-0.3382139205932617,-2.0441713333129883,0.7390367984771729
1707663721974068000,0.68606787109375,0.19051551818847656,-2.20413875579834,0.9109139442443848
1707663721984068000,0.696068115234375,0.23783206939697266,-1.867884635925293,0.4044872522354126
1707663721994068000,0.70606787109375,0.032654762268066406,-1.170598030090332,0.06434297561645508
1707663722004068000,0.716068115234375,-0.5463449954986572,-0.669499397277832,0.09502291679382324
1707663722014068000,0.72606787109375,-1.3215126991271973,-0.44724082946777344,-0.1914656162261963
1707663722024068000,0.736068115234375,-2.5849945545196533,-0.699244499206543,-0.4837501049041748
1707663722034068000,0.74606787109375,-3.723050117492676,-0.9888162612915039,-0.2641427516937256
1707663722044068000,0.756068115234375,-3.1710286140441895,-1.2684860229492188,0.3163015842437744
1707663722054068000,0.76606787109375,-1.690132737159729,-2.005711555480957,0.7162737846374512
1707663722064068000,0.776068115234375,-0.5904691219329834,-2.6143388748168945,1.1730939149856567
1707663722074068000,0.78606787109375,-0.1923513412475586,-2.728239059448242,1.2418149709701538
1707663722084068000,0.796068115234375,-0.4812502861022949,-2.5167860984802246,0.7060881853103638
1707663722094068000,0.80606787109375,-0.6378711462020874,-1.9754486083984375,0.5182914733886719
1707663722104068000,0.816068115234375,-0.7928383350372314,-1.4621448516845703,0.4888535737991333
1707663722114068000,0.82606787109375,0.3745453357696533,-0.7854490280151367,1.5990793704986572
1707663722124068000,0.836068115234375,0.8805210590362549,-0.20682144165039062,2.4216394424438477
1707663722134068000,0.84606787109375,-0.002384185791015625,0.12777996063232422,2.7847015857696533
1707663722144068000,0.856068115234375,-0.4409303665161133,-0.41707324981689453,2.1006979942321777
1707663722154068000,0.86606787109375,-0.2574336528778076,-1.5730905532836914,0.6910557746887207
1707663722164068000,0.876068115234375,0.1406717300415039,-2.533510208129883,-0.5373661518096924
1707663722174068000,0.88606787109375,0.9954724311828613,-2.3264312744140625,0.4220390319824219
1707663722184068000,0.896068115234375,0.42267513275146484,-2.4115161895751953,2.0139498710632324
1707663722194068000,0.90606787109375,0.9271814823150635,-2.3538455963134766,2.207557201385498
1707663722204068000,0.916068115234375,1.2759337425231934,-0.9956092834472656,1.0160086154937744
1707663722214068000,0.92606787109375,0.7764790058135986,0.7745199203491211,-0.13897490501403809
1707663722224068000,0.936068115234375,-0.2362537384033203,1.0064163208007812,-0.7947292327880859
1707663722234068000,0.94606787109375,-1.3160724639892578,0.8534164428710938,-1.9441444873809814
1707663722244068000,0.956068115234375,-0.5289742946624756,-0.1004953384399414,-2.1247498989105225
1707663722254068000,0.96606787109375,0.6355612277984619,-0.937067985534668,-1.6191580295562744
1707663722264068000,0.976068115234375,1.5539612770080566,-0.8219127655029297,-1.1069531440734863
1707663722274068000,0.98606787109375,1.3602879047393799,0.09867668151855469,-0.43698668479919434
1707663722284068000,0.996068115234375,0.6922833919525146,1.1165542602539062,-0.1362241506576538
1707663722294068000,1.00606787109375,0.6361265182495117,1.2401914596557617,-0.08306336402893066
1707663722304068000,1.016068115234375,0.4679555892944336,1.05401611328125,-0.7138800621032715
1707663722314068000,1.02606787109375,1.0705599784851074,0.6607027053833008,-1.0928188562393188
1707663722324068000,1.036068115234375,1.4414548873901367,0.5014657974243164,-1.2984988689422607
1707663722334068000,1.04606787109375,1.457197904586792,0.8592929840087891,-1.5170786380767822
1707663722344068000,1.056068115234375,1.992427110671997,1.8506946563720703,-0.4512617588043213
1707663722354068000,1.06606787109375,1.70534086227417,2.8572254180908203,0.3364294171333313
1707663722364068000,1.076068115234375,0.9538106918334961,3.1507091522216797,0.2381877899169922
1707663722374068000,1.08606787109375,0.5616865158081055,2.8037519454956055,-0.12139081954956055
1707663722384068000,1.096068115234375,0.561398983001709,2.553302764892578,-0.6964626312255859
1707663722394068000,1.10606787109375,0.9183108806610107,2.083977699279785,-0.9204904437065125
1707663722404068000,1.116068115234375,0.5729444026947021,2.0066022872924805,-0.40930014848709106
1707663722414068000,1.12606787109375,0.6180789470672607,1.8049125671386719,0.018931567668914795
1707663722424068000,1.136068115234375,1.05434250831604,1.7425203323364258,-0.07119369506835938
1707663722434068000,1.14606787109375,0.7226040363311768,1.5439882278442383,-0.04156136512756348
1707663722444068000,1.156068115234375,0.7524497509002686,1.2054901123046875,-0.4642285108566284
1707663722454068000,1.16606787109375,0.6729495525360107,0.9423465728759766,-0.5716743469238281
1707663722464068000,1.176068115234375,0.9888050556182861,0.8252420425415039,-0.432938814163208
1707663722474068000,1.18606787109375,0.7778680324554443,0.7960977554321289,-0.49367260932922363
1707663722484068000,1.196068115234375,0.607450008392334,0.34426116943359375,-0.3505150079727173
1707663722494068000,1.20606787109375,0.2613687515258789,0.22561264038085938,-0.10900616645812988
1707663722504068000,1.216068115234375,0.23126506805419922,0.2079610824584961,0.25238120555877686
1707663722514068000,1.22606787109375,-0.03475594520568848,-0.2437734603881836,0.5009186267852783
1707663722524068000,1.236068115234375,0.0916147232055664,-0.8045024871826172,0.5552604794502258
1707663722534068000,1.24606787109375,0.3737504482269287,-1.0960378646850586,0.2516828179359436
1707663722544068000,1.256068115234375,0.22261977195739746,-0.8787717819213867,0.05639660358428955
1707663722554068000,1.26606787109375,-0.14129233360290527,-0.4580402374267578,0.16583043336868286
1707663722564068000,1.276068115234375,-0.30232739448547363,0.032578468322753906,0.5075852274894714
1707663722574068000,1.28606787109375,0.12479948997497559,0.31261539459228516,0.6891158819198608
1707663722584068000,1.296068115234375,0.41086721420288086,0.9034824371337891,0.8353530168533325
1707663722594068000,1.30606787109375,0.0826864242553711,1.7147150039672852,0.875456690788269
1707663722604068000,1.316068115234375,0.13408160209655762,1.5755205154418945,0.657074511051178
1707663722614068000,1.32606787109375,0.322293758392334,0.6849660873413086,0.15962648391723633
1707663722624068000,1.336068115234375,0.3009316921234131,-0.0660409927368164,-0.1098623275756836
1707663722634068000,1.34606787109375,0.08244991302490234,0.024017333984375,0.31372472643852234
1707663722644068000,1.356068115234375,-0.3295586109161377,0.5229177474975586,0.9553402662277222
1707663722654068000,1.36606787109375,0.29454588890075684,-0.49405765533447266,-0.13007110357284546
1707663722664068000,1.376068115234375,0.683696985244751,-1.1358060836791992,-0.2136022448539734
1707663722674068000,1.38606787109375,-0.21323323249816895,-0.642603874206543,0.096310555934906
1707663722684068000,1.396068115234375,-0.2523026466369629,-0.06435203552246094,-0.01875060796737671
1707663722694068000,1.40606787109375,-0.18357253074645996,0.1825399398803711,0.3014431297779083
1707663722704068000,1.416068115234375,0.422802209854126,0.6653814315795898,0.5508064031600952
1707663722714068000,1.42606787109375,-0.03220248222351074,0.8206539154052734,0.0531647652387619
1707663722724068000,1.436068115234375,0.10924696922302246,2.496929168701172,0.20602701604366302
1707663722734068000,1.44606787109375,0.046715497970581055,1.338362693786621,-0.03593987226486206
1707663722744068000,1.456068115234375,0.37072014808654785,-0.20087337493896484,-0.05539967119693756
1707663722754068000,1.46606787109375,0.1623077392578125,-0.3242044448852539,0.4385899007320404
1707663722764068000,1.476068115234375,-0.1149756908416748,-0.12252426147460938,0.8517186045646667
1707663722774068000,1.48606787109375,-0.09301948547363281,-0.3695049285888672,0.641026496887207
1707663722784068000,1.496068115234375,0.3800816535949707,-0.5655889511108398,0.053453996777534485
1707663722794068000,1.50606787109375,-0.54555344581604,0.30591487884521484,-0.8623316287994385
1707663722804068000,1.516068115234375,-0.5732855796813965,-0.15013408660888672,-0.7448336482048035
1707663722814068000,1.52606787109375,-0.08820223808288574,-0.5884466171264648,0.11194481700658798
1707663722824068000,1.536068115234375,-0.03875875473022461,-0.10415172576904297,0.6800146102905273
1707663722834068000,1.54606787109375,-0.5481839179992676,-0.07034683227539062,0.5974740386009216
1707663722844068000,1.556068115234375,-0.16076350212097168,-0.6718282699584961,0.4383409023284912
1707663722854068000,1.56606787109375,0.04907941818237305,-1.1453628540039062,0.04852272570133209
1707663722864068000,1.576068115234375,-0.004138469696044922,-1.0997991561889648,-0.4398600459098816
1707663722874068000,1.58606787109375,-0.15436792373657227,-1.089461326599121,-0.4338320195674896
1707663722884068000,1.596068115234375,-0.14296317100524902,-1.0061721801757812,0.09650030732154846
1707663722894068000,1.60606787109375,-0.1673259735107422,-0.6049633026123047,0.6324570178985596
1707663722904068000,1.616068115234375,-1.2494587898254395,-0.0877847671508789,0.8000541925430298
1707663722914068000,1.62606787109375,-0.6286156177520752,-0.1634206771850586,-0.3946947455406189
1707663722924068000,1.636068115234375,-0.22535443305969238,-0.04814624786376953,-1.6973209381103516
1707663722934068000,1.64606787109375,-1.1770532131195068,0.5176229476928711,-1.5012460947036743
1707663722944068000,1.656068115234375,-0.7854995727539062,1.905196189880371,-0.2346983253955841
1707663722954068000,1.66606787109375,-0.47066450119018555,2.1854934692382812,0.41088736057281494
1707663722964068000,1.676068115234375,0.36139893531799316,-0.5341424942016602,0.362831711769104
1707663722974068000,1.68606787109375,-0.33405113220214844,0.12787246704101562,0.41754329204559326
1707663722984068000,1.696068115234375,-0.07970333099365234,0.18207836151123047,0.8096906542778015
1707663722994068000,1.70606787109375,0.006348609924316406,0.16855716705322266,0.6087628602981567
1707663723004068000,1.716068115234375,-0.5596499443054199,0.037451744079589844,0.3009452223777771
1707663723014068000,1.72606787109375,-0.6792399883270264,-0.10538673400878906,0.2875411808490753
1707663723024068000,1.736068115234375,-0.6129324436187744,0.19182205200195312,0.4132460951805115
1707663723034068000,1.74606787109375,-0.29383087158203125,0.3256235122680664,0.5995900630950928
1707663723044068000,1.756068115234375,0.0504002571105957,0.13635540008544922,0.5901989936828613
1707663723054068000,1.76606787109375,0.235457181930542,-0.18166637420654297,-0.027254529297351837
1707663723064068000,1.776068115234375,0.03936600685119629,-0.6455059051513672,-0.7300711274147034
1707663723074068000,1.78606787109375,0.04912209510803223,-1.1146039962768555,-1.153747320175171
1707663723084068000,1.796068115234375,0.554785966873169,-1.0780420303344727,-0.847554087638855
1707663723094068000,1.80606787109375,-0.035903215408325195,-0.4733619689941406,-0.6424733400344849
1707663723104068000,1.816068115234375,-0.5258171558380127,-0.17227649688720703,-0.2620464265346527
1707663723114068000,1.82606787109375,-0.4165000915527344,0.2112598419189453,0.5939837098121643
1707663723124068000,1.836068115234375,-0.4420790672302246,0.05214500427246094,0.6735830903053284
1707663723134068000,1.84606787109375,-0.4656836986541748,-0.17342567443847656,0.6182675361633301
1707663723144068000,1.856068115234375,-0.1575453281402588,-0.3902702331542969,0.7916962504386902
1707663723154068000,1.86606787109375,-0.15426087379455566,-0.3735208511352539,0.5709244012832642
1707663723164068000,1.876068115234375,-0.6225185394287109,-0.07248210906982422,0.2290690839290619
1707663723174068000,1.88606787109375,-0.3475954532623291,0.13720226287841797,0.1522367000579834
1707663723184068000,1.896068115234375,-0.25099730491638184,0.009018898010253906,0.22445286810398102
1707663723194068000,1.90606787109375,-0.33480334281921387,0.0185394287109375,0.3501180410385132
1707663723204068000,1.916068115234375,-0.48967576026916504,-0.14338111877441406,0.2558620572090149
1707663723214068000,1.92606787109375,-0.5413873195648193,-0.3508110046386719,0.21863913536071777
1707663723224068000,1.936068115234375,0.07010173797607422,-0.6529626846313477,0.15973402559757233
1707663723234068000,1.94606787109375,0.09385299682617188,-0.15808391571044922,0.2237476408481598
1707663723244068000,1.956068115234375,-0.0007987022399902344,0.12782001495361328,-0.004883125424385071
1707663723254068000,1.96606787109375,-0.13153433799743652,0.702357292175293,0.1559239774942398
1707663723264068000,1.976068115234375,-0.04597210884094238,0.5095052719116211,0.3509497046470642
1707663723274068000,1.98606787109375,-0.2862110137939453,0.11417293548583984,0.3782506585121155
1707663723284068000,1.996068115234375,0.014293193817138672,0.3430366516113281,0.8796998262405396
1707663723294068000,2.00606787109375,0.10845780372619629,0.4386940002441406,0.6872683763504028
1707663723304068000,2.016068115234375,0.08447456359863281,0.27709293365478516,0.2747243642807007
1707663723314068000,2.02606787109375,0.16907072067260742,0.20262622833251953,0.31660670042037964
1707663723324068000,2.036068115234375,-0.37655043601989746,0.12448787689208984,0.0618184432387352
1707663723334068000,2.04606787109375,-0.8264358043670654,0.062424659729003906,-0.1567879319190979
1707663723344068000,2.056068115234375,-0.6335783004760742,0.03214263916015625,0.04069028049707413
1707663723354068000,2.06606787109375,-0.18145990371704102,0.011049270629882812,0.3021019697189331
1707663723364068000,2.076068115234375,-0.5055086612701416,-0.03441905975341797,0.10026774555444717
1707663723374068000,2.08606787109375,-0.736335039138794,-0.09222888946533203,-0.1192125752568245
1707663723384068000,2.096068115234375,-0.4469759464263916,-0.10608100891113281,0.3109903931617737
1707663723394068000,2.10606787109375,-0.3660411834716797,-0.1526203155517578,0.2343599498271942
1707663723404068000,2.116068115234375,-0.35854625701904297,-0.18950366973876953,0.12841880321502686
1707663723414068000,2.12606787109375,0.19814562797546387,-0.21962547302246094,0.2508281171321869
1707663723424068000,2.136068115234375,0.14664196968078613,-0.12671566009521484,0.2925911545753479
1707663723434068000,2.14606787109375,0.35016965866088867,-0.033593177795410156,0.20638935267925262
1707663723444068000,2.156068115234375,0.5044717788696289,-0.014888763427734375,0.04694921523332596
1707663723454068000,2.16606787109375,0.33503293991088867,0.008191108703613281,-0.038421548902988434
1707663723464068000,2.176068115234375,0.013868331909179688,-0.052048683166503906,-0.031629741191864014
1707663723474068000,2.18606787109375,-0.2884557247161865,-0.1304616928100586,-0.20171278715133667
1707663723484068000,2.196068115234375,-0.05730485916137695,-0.12992572784423828,-0.21798288822174072
1707663723494068000,2.20606787109375,-0.2644832134246826,-0.036751747131347656,-0.15945272147655487
1707663723504068000,2.216068115234375,-0.1710066795349121,0.049757957458496094,-0.22165080904960632
1707663723514068000,2.22606787109375,-0.26277971267700195,0.06557846069335938,-0.21126730740070343
1707663723524068000,2.236068115234375,-0.4788551330566406,0.06720638275146484,-0.14515961706638336
1707663723534068000,2.24606787109375,-0.18041753768920898,0.06667709350585938,0.02088738977909088
1707663723544068000,2.256068115234375,-0.30576181411743164,-0.009139060974121094,0.011690527200698853
1707663723554068000,2.26606787109375,-0.4623594284057617,-0.025959014892578125,0.2447153627872467
1707663723564068000,2.276068115234375,-0.38347339630126953,-0.05788898468017578,0.19423478841781616
1707663723574068000,2.28606787109375,-0.5286252498626709,-0.03254890441894531,0.11213916540145874
1707663723584068000,2.296068115234375,0.14297866821289062,-0.013468742370605469,0.09521230310201645
1707663723594068000,2.30606787109375,0.6784477233886719,0.010964393615722656,0.07150187343358994
1707663723604068000,2.316068115234375,0.9439339637756348,-0.03051280975341797,-0.005565166473388672
1707663723614068000,2.32606787109375,0.9036831855773926,-0.0850381851196289,-0.07076965272426605
1707663723624068000,2.336068115234375,0.3751540184020996,-0.13126468658447266,-0.10986940562725067
1707663723634068000,2.34606787109375,0.04202461242675781,-0.07512569427490234,0.14151418209075928
1707663723644068000,2.356068115234375,0.07805347442626953,-0.057051658630371094,0.10248889029026031
1707663723654068000,2.36606787109375,0.029094219207763672,-0.04683113098144531,0.18012237548828125
1707663723664068000,2.376068115234375,-0.054141998291015625,-0.032881736755371094,0.03446142375469208
1707663723674068000,2.38606787109375,0.35725879669189453,-0.16665935516357422,0.09173993766307831
1707663723684068000,2.396068115234375,0.11979007720947266,-0.04528999328613281,0.052231565117836
1707663723694068000,2.40606787109375,-0.030812740325927734,-0.0025386810302734375,-0.10356470942497253
1707663723704068000,2.416068115234375,-0.24153661727905273,-0.039208412170410156,0.15017497539520264
1707663723714068000,2.42606787109375,-0.7204651832580566,-0.12866497039794922,0.025542065501213074
1707663723724068000,2.436068115234375,-1.6488046646118164,-0.15554141998291016,0.03369251638650894
1707663723734068000,2.44606787109375,-1.8701999187469482,-0.006256103515625,0.3433087468147278
1707663723744068000,2.456068115234375,0.10843658447265625,-0.07721424102783203,0.12392266094684601
1707663723754068000,2.46606787109375,1.2323379516601562,-0.04453754425048828,0.16500532627105713
1707663723764068000,2.476068115234375,1.5717172622680664,-0.12191104888916016,-0.011413514614105225
1707663723774068000,2.48606787109375,0.6898694038391113,-0.10642814636230469,0.01912502944469452
1707663723784068000,2.496068115234375,-0.6535720825195312,-0.03281116485595703,0.17549626529216766
1707663723794068000,2.50606787109375,-1.2085082530975342,-0.05843544006347656,0.10744661092758179
1707663723804068000,2.516068115234375,-0.5318281650543213,-0.03931236267089844,0.1196843832731247
1707663723814068000,2.52606787109375,0.369265079498291,-0.05045318603515625,0.06620337069034576
1707663723824068000,2.536068115234375,0.5899043083190918,-0.050688743591308594,0.09148416668176651
1707663723834068000,2.54606787109375,0.1376628875732422,-0.057010650634765625,0.0756676122546196
1707663723844068000,2.556068115234375,-0.4852125644683838,-0.040561676025390625,0.11637871712446213
1707663723854068000,2.56606787109375,-0.5828061103820801,-0.04151153564453125,0.10364747047424316
1707663723864068000,2.576068115234375,-0.1659259796142578,-0.03199481964111328,0.10771071910858154
1707663723874068000,2.58606787109375,0.2124490737915039,-0.03076457977294922,0.07173271477222443
1707663723884068000,2.596068115234375,0.21412038803100586,-0.032756805419921875,0.0833292156457901
1707663723894068000,2.60606787109375,-0.08021831512451172,-0.032379150390625,0.07894884794950485
1707663723904068000,2.616068115234375,-0.33658623695373535,-0.035205841064453125,0.09731777012348175
1707663723914068000,2.62606787109375,-0.2759838104248047,-0.022864341735839844,0.07471463084220886
1707663723924068000,2.636068115234375,-0.021802425384521484,-0.02858257293701172,0.06725694984197617
1707663723934068000,2.64606787109375,0.11246442794799805,-0.04078388214111328,0.061364978551864624
1707663723944068000,2.656068115234375,0.03966951370239258,-0.04103565216064453,0.059197429567575455
1707663723954068000,2.66606787109375,-0.12217187881469727,-0.03408527374267578,0.05902538821101189
1707663723964068000,2.676068115234375,-0.20637989044189453,-0.036457061767578125,0.07138772308826447
1707663723974068000,2.68606787109375,-0.10952138900756836,-0.03938484191894531,0.058146171271800995
1707663723984068000,2.696068115234375,0.009448051452636719,-0.04434013366699219,0.053957078605890274
1707663723994068000,2.70606787109375,0.03438568115234375,-0.04391765594482422,0.05805026739835739
1707663724004068000,2.716068115234375,-0.05383110046386719,-0.046240806579589844,0.057075921446084976
1707663724014068000,2.72606787109375,-0.11785268783569336,-0.05115509033203125,0.052303850650787354
1707663724024068000,2.736068115234375,-0.12651300430297852,-0.05297374725341797,0.05295675992965698
1707663724034068000,2.74606787109375,-0.06448554992675781,-0.05123138427734375,0.04942886531352997
1707663724044068000,2.756068115234375,-0.02786874771118164,-0.057804107666015625,0.06195652484893799
1707663724054068000,2.76606787109375,-0.0433497428894043,-0.039238929748535156,0.04943474382162094
1707663724064068000,2.776068115234375,-0.09514045715332031,-0.04189777374267578,0.05211088806390762
1707663724074068000,2.78606787109375,-0.12165689468383789,-0.03831672668457031,0.05239705741405487
1707663724084068000,2.796068115234375,-0.08793973922729492,-0.039999961853027344,0.05405258387327194
1707663724094068000,2.80606787109375,-0.055159568786621094,-0.04066276550292969,0.044328391551971436
1707663724104068000,2.816068115234375,-0.04307222366333008,-0.02453899383544922,0.05107913911342621
1707663724114068000,2.82606787109375,-0.06813287734985352,-0.027380943298339844,0.054045386612415314
1707663724124068000,2.836068115234375,-0.08724737167358398,-0.03116607666015625,0.045162804424762726
1707663724134068000,2.84606787109375,-0.10737895965576172,-0.02349853515625,0.04543748125433922
1707663724144068000,2.856068115234375,-0.06366395950317383,-0.025289535522460938,0.04547356814146042
1707663724154068000,2.86606787109375,-0.06209087371826172,-0.01864147186279297,0.049372829496860504
1707663724164068000,2.876068115234375,-0.05446338653564453,-0.005901336669921875,0.045637570321559906
1707663724174068000,2.88606787109375,-0.06926107406616211,-0.020975112915039062,0.03500191122293472
1707663724184068000,2.896068115234375,-0.07715272903442383,-0.0070133209228515625,0.052882082760334015
1707663724194068000,2.90606787109375,-0.07402515411376953,-0.009240150451660156,0.043902136385440826
1707663724204068000,2.916068115234375,-0.045131683349609375,-0.01625347137451172,0.04665897414088249
1707663724214068000,2.92606787109375,-0.05082559585571289,-0.01685810089111328,0.03861097991466522
1707663724224068000,2.936068115234375,-0.056047916412353516,-0.023342132568359375,0.044011425226926804
1707663724234068000,2.94606787109375,-0.0537872314453125,-0.01656818389892578,0.04086564481258392
1707663724244068000,2.956068115234375,-0.06775903701782227,-0.01873779296875,0.04923833906650543
1707663724254068000,2.96606787109375,-0.05276966094970703,-0.029947280883789062,0.03787701576948166
1707663724264068000,2.976068115234375,-0.049334049224853516,-0.020250320434570312,0.05044946074485779
1707663724274068000,2.98606787109375,-0.03254508972167969,-0.02665424346923828,0.04422542080283165
1707663724284068000,2.996068115234375,-0.05058717727661133,-0.024669647216796875,0.05062004178762436
1707663724294068000,3.00606787109375,-0.05222129821777344,-0.033512115478515625,0.04345362260937691
1707663724304068000,3.016068115234375,-0.04840993881225586,-0.030557632446289062,0.04720238968729973
1707663724314068000,3.02606787109375,-0.037479400634765625,-0.03077220916748047,0.04788000136613846
1707663724324068000,3.036068115234375,-0.03846883773803711,-0.024112701416015625,0.044047728180885315
1707663724334068000,3.04606787109375,-0.042479515075683594,-0.025597572326660156,0.026035822927951813
1707663724344068000,3.056068115234375,-0.049776554107666016,-0.02743244171142578,0.04596499726176262
1707663724354068000,3.06606787109375,-0.03617048263549805,-0.018792152404785156,0.03627069294452667
1707663724364068000,3.076068115234375,-0.03472757339477539,-0.0229339599609375,0.03674522414803505
1707663724374068000,3.08606787109375,-0.04802370071411133,-0.018263816833496094,0.03909070044755936
1707663724384068000,3.096068115234375,-0.03630542755126953,-0.01909160614013672,0.0410638153553009
1707663724394068000,3.10606787109375,-0.04480552673339844,-0.02031707763671875,0.022575557231903076
1707663724404068000,3.116068115234375,-0.04772806167602539,-0.016969680786132812,0.03211963176727295
1707663724414068000,3.12606787109375,-0.04339599609375,-0.014904975891113281,0.03656703978776932
1707663724424068000,3.136068115234375,-0.0450286865234375,-0.006420135498046875,0.04106161743402481
1707663724434068000,3.14606787109375,-0.031378746032714844,-0.00920867919921875,0.02798309177160263
1707663724444068000,3.156068115234375,-0.04161548614501953,-0.01406097412109375,0.025253131985664368
1707663724454068000,3.16606787109375,-0.048480987548828125,-0.007061958312988281,0.0251263827085495
1707663724464068000,3.176068115234375,-0.03423452377319336,-0.0059795379638671875,0.03471546620130539
1707663724474068000,3.18606787109375,-0.02534198760986328,-0.0035305023193359375,0.01889515295624733
1707663724484068000,3.196068115234375,-0.04048871994018555,-0.010267257690429688,0.035569410771131516
1707663724494068000,3.20606787109375,-0.04740571975708008,-0.02031993865966797,0.023517806082963943
1707663724504068000,3.216068115234375,-0.05342245101928711,-0.019576072692871094,0.020888715982437134
1707663724514068000,3.22606787109375,-0.042233943939208984,-0.018952369689941406,0.027614321559667587
1707663724524068000,3.236068115234375,-0.040970802307128906,-0.016585350036621094,0.021002795547246933
1707663724534068000,3.24606787109375,-0.024827957153320312,-0.007388114929199219,0.02407768741250038
1707663724544068000,3.256068115234375,-0.026574134826660156,-0.009940147399902344,0.02229061722755432
1707663724554068000,3.26606787109375,-0.028818607330322266,-0.016097068786621094,0.021904077380895615
1707663724564068000,3.276068115234375,-0.03190279006958008,-0.02203655242919922,0.020206131041049957
1707663724574068000,3.28606787109375,-0.0341496467590332,-0.01586627960205078,0.021401461213827133
1707663724584068000,3.296068115234375,-0.02455615997314453,-0.016742706298828125,0.025600291788578033
1707663724594068000,3.30606787109375,-0.027981281280517578,-0.017303466796875,0.02029324322938919
1707663724604068000,3.316068115234375,-0.027529239654541016,-0.016592979431152344,0.01825273409485817
1707663724614068000,3.32606787109375,-0.03315877914428711,-0.010349273681640625,0.018976256251335144
1707663724624068000,3.336068115234375,-0.02566051483154297,-0.008831977844238281,0.01616532728075981
1707663724634068000,3.34606787109375,-0.022531986236572266,-0.01609325408935547,0.02121417596936226
1707663724644068000,3.356068115234375,-0.011387348175048828,-0.016821861267089844,0.021488916128873825
1707663724654068000,3.36606787109375,-0.02111959457397461,-0.019598960876464844,0.02103303372859955
1707663724664068000,3.376068115234375,-0.01190185546875,-0.00958251953125,0.012558378279209137
1707663724674068000,3.38606787109375,-0.014754295349121094,-0.015804290771484375,0.02774553745985031
1707663724684068000,3.396068115234375,-0.019992828369140625,-0.010970115661621094,0.012689124792814255
1707663724694068000,3.40606787109375,-0.015472888946533203,-0.006695747375488281,0.024984102696180344
1707663724704068000,3.416068115234375,-0.0107879638671875,-0.0051326751708984375,0.028290849179029465
1707663724714068000,3.42606787109375,-0.007991313934326172,-0.0088043212890625,0.02830360271036625
1707663724724068000,3.436068115234375,-0.022547245025634766,-0.010244369506835938,0.01846221089363098
1707663724734068000,3.44606787109375,-0.02789592742919922,-0.003482818603515625,0.028942029923200607
1707663724744068000,3.456068115234375,-0.02340221405029297,-0.011148452758789062,0.023348800837993622
1707663724754068000,3.46606787109375,-0.007277965545654297,-0.011519432067871094,0.0232594832777977
1707663724764068000,3.476068115234375,-0.026068687438964844,-0.0079803466796875,0.02375965565443039
1707663724774068000,3.48606787109375,-0.03551816940307617,-0.006886482238769531,0.016787409782409668
1707663724784068000,3.496068115234375,-0.0181884765625,-0.0074405670166015625,0.0268087275326252
1707663724794068000,3.50606787109375,-0.02211475372314453,-0.007309913635253906,0.02089948020875454
1707663724804068000,3.516068115234375,-0.023401737213134766,-0.01611804962158203,0.022334549576044083
1707663724814068000,3.52606787109375,-0.035883426666259766,-0.010786056518554688,0.018601857125759125
1707663724824068000,3.536068115234375,-0.021674156188964844,-0.010038375854492188,0.017131779342889786
1707663724834068000,3.54606787109375,-0.03434610366821289,-0.01702404022216797,0.02127593569457531
1707663724844068000,3.556068115234375,-0.02317667007446289,-0.009218215942382812,0.020830325782299042
1707663724854068000,3.56606787109375,-0.027731895446777344,-0.024483680725097656,0.03277343884110451
1707663724864068000,3.576068115234375,-0.02692699432373047,-0.016527175903320312,0.012696787714958191
1707663724874068000,3.58606787109375,-0.03161287307739258,-0.007674217224121094,0.0161701962351799
1707663724884068000,3.596068115234375,-0.023466110229492188,-0.013070106506347656,0.0266534723341465
1707663724894068000,3.60606787109375,-0.028847694396972656,-0.00965118408203125,0.01278151199221611
1707663724904068000,3.616068115234375,-0.011014461517333984,0.006781578063964844,0.022181525826454163
1707663724914068000,3.62606787109375,-0.023697853088378906,-0.0017614364624023438,0.012122131884098053
1707663724924068000,3.636068115234375,-0.012784481048583984,-0.007702827453613281,0.01888861134648323
1707663724934068000,3.64606787109375,-0.005227565765380859,-0.011889457702636719,0.007219281047582626
1707663724944068000,3.656068115234375,-0.01638650894165039,-0.004784584045410156,0.0007573701441287994
1707663724954068000,3.66606787109375,-0.019293785095214844,-0.00032329559326171875,0.00624697282910347
1707663724964068000,3.676068115234375,-0.01407003402709961,-0.005214691162109375,0.0061691515147686005
1707663724974068000,3.68606787109375,-0.012334823608398438,-0.007321357727050781,0.016581833362579346
1707663724984068000,3.696068115234375,-0.006476402282714844,0.0062999725341796875,0.004641424864530563
1707663724994068000,3.70606787109375,-0.013164997100830078,0.0008497238159179688,-0.0003152191638946533
1707663725004068000,3.716068115234375,-0.017489910125732422,-0.00934600830078125,0.009824566543102264
1707663725014068000,3.72606787109375,-0.007434844970703125,-0.0045337677001953125,0.0063746050000190735
1707663725024068000,3.736068115234375,-0.006384372711181641,-0.009332656860351562,0.0017740391194820404
1707663725034068000,3.74606787109375,-0.010518074035644531,0.0019664764404296875,-0.0017077960073947906
1707663725044068000,3.756068115234375,-0.011713981628417969,-0.0153961181640625,0.018447719514369965
1707663725054068000,3.76606787109375,-0.01793050765991211,-0.012075424194335938,0.01312674954533577
1707663725064068000,3.776068115234375,-0.007775783538818359,-0.011438369750976562,0.008865553885698318
1707663725074068000,3.78606787109375,-0.009860992431640625,-0.0009479522705078125,0.008446581661701202
1707663725084068000,3.796068115234375,-0.008939266204833984,-0.0032968521118164062,0.014024835079908371
1707663725094068000,3.80606787109375,-0.0028243064880371094,0.0018072128295898438,0.01431504637002945
1707663725104068000,3.816068115234375,-0.007076740264892578,-0.016168594360351562,0.01413845643401146
1707663725114068000,3.82606787109375,-0.0186920166015625,-0.0006380081176757812,-0.0015421509742736816
1707663725124068000,3.836068115234375,0.004836559295654297,-0.012668609619140625,0.011019594967365265
1707663725134068000,3.84606787109375,-0.01011800765991211,-0.003185272216796875,0.004948172718286514
1707663725144068000,3.856068115234375,-0.017696380615234375,-0.002777099609375,0.009748328477144241
1707663725154068000,3.86606787109375,-0.012923717498779297,-0.010555267333984375,0.009112566709518433
1707663725164068000,3.876068115234375,-0.017789840698242188,0.00030231475830078125,0.019532905891537666
1707663725174068000,3.88606787109375,-0.0049839019775390625,-0.007540702819824219,0.006709598004817963
1707663725184068000,3.896068115234375,-0.0077266693115234375,0.0034284591674804688,0.00441259890794754
1707663725194068000,3.90606787109375,-0.01636791229248047,-0.0076770782470703125,0.008207816630601883
1707663725204068000,3.916068115234375,-0.013544082641601562,0.003930091857910156,0.020718291401863098
1707663725214068000,3.92606787109375,-0.015114307403564453,-0.011035919189453125,0.015096448361873627
1707663725224068000,3.936068115234375,-0.021666526794433594,-0.0049457550048828125,-0.00027023255825042725
1707663725234068000,3.94606787109375,-0.015334129333496094,-0.0039272308349609375,0.01195952296257019
1707663725244068000,3.956068115234375,-0.010370254516601562,-0.004445075988769531,0.0208588819950819
1707663725254068000,3.96606787109375,-0.007876873016357422,-0.005270957946777344,0.009130727499723434
1707663725264068000,3.976068115234375,-0.010767459869384766,-0.0035276412963867188,0.013306908309459686
1707663725274068000,3.98606787109375,-0.004593372344970703,-0.0049896240234375,0.015197772532701492
1707663725284068000,3.996068115234375,-0.017839431762695312,-0.013520240783691406,0.013998983427882195
1707663725294068000,4.00606787109375,-0.012735843658447266,-0.008875846862792969,0.010522931814193726
1707663725304068000,4.016068115234375,-0.003387928009033203,0.00012111663818359375,0.02147703617811203
1707663725314068000,4.02606787109375,-0.005062103271484375,-0.0009613037109375,0.018359050154685974
1707663725324068000,4.036068115234375,-0.018802165985107422,-0.007304191589355469,0.006477430462837219
1707663725334068000,4.04606787109375,-0.016659259796142578,0.0009870529174804688,0.008069228380918503
1707663725344068000,4.056068115234375,-0.0005741119384765625,-0.00640106201171875,0.0036077722907066345
1707663725354068000,4.06606787109375,0.006814002990722656,-0.00238800048828125,0.008959859609603882
1707663725364068000,4.076068115234375,0.0005202293395996094,-0.00058746337890625,0.003061257302761078
1707663725374068000,4.08606787109375,-0.0021924972534179688,0.0028543472290039062,-0.0006844550371170044
1707663725384068000,4.096068115234375,-0.0038385391235351562,-0.00353240966796875,0.004109621047973633
1707663725394068000,4.10606787109375,-0.006607532501220703,-0.002124786376953125,0.005322031676769257
1707663725404068000,4.116068115234375,-0.005774497985839844,0.0026378631591796875,0.010381927713751793
1707663725414068000,4.12606787109375,-0.0005693435668945312,-0.0009403228759765625,0.0015062019228935242
1707663725424068000,4.136068115234375,-0.007164955139160156,0.00720977783203125,0.006317157298326492
1707663725434068000,4.14606787109375,0.00013065338134765625,0.016595840454101562,0.009688291698694229
1707663725444068000,4.156068115234375,-0.008331298828125,-0.0010862350463867188,0.006430894136428833
1707663725454068000,4.16606787109375,-0.006110668182373047,-0.00028228759765625,-0.0022876858711242676
1707663725464068000,4.176068115234375,-0.009108543395996094,-0.008989334106445312,-0.00045023486018180847
1707663725474068000,4.18606787109375,0.000263214111328125,-0.0039157867431640625,0.0010692104697227478
1707663725484068000,4.196068115234375,-0.020419597625732422,-0.006283760070800781,0.004531092941761017
1707663725494068000,4.20606787109375,-0.015114307403564453,0.0006647109985351562,0.014081768691539764
1707663725504068000,4.216068115234375,-0.007656097412109375,-0.002834320068359375,0.007481679320335388
1707663725514068000,4.22606787109375,0.0038056373596191406,-0.008600234985351562,0.0053855665028095245
1707663725524068000,4.236068115234375,0.00545501708984375,-0.005736351013183594,-0.0034195631742477417
1707663725534068000,4.24606787109375,-0.004356861114501953,-0.002735137939453125,0.0019347332417964935
1707663725544068000,4.256068115234375,-0.008536815643310547,-0.008867263793945312,0.009095501154661179
1707663725554068000,4.26606787109375,-0.016640186309814453,-0.0076446533203125,-0.0041358582675457
1707663725564068000,4.276068115234375,-0.008502483367919922,-0.0055370330810546875,0.006011489778757095
1707663725574068000,4.28606787109375,-0.00777435302734375,-0.006343841552734375,-0.0003767460584640503
1707663725584068000,4.296068115234375,-0.00805807113647461,-0.004977226257324219,0.007578272372484207
1707663725594068000,4.30606787109375,0.005272865295410156,-0.012093544006347656,0.007313370704650879
1707663725604068000,4.316068115234375,-0.0018315315246582031,-0.010469436645507812,0.00216839462518692
1707663725614068000,4.32606787109375,0.002514362335205078,-0.0054340362548828125,0.0031799711287021637
1707663725624068000,4.336068115234375,-0.011688232421875,-0.008779525756835938,0.011770766228437424
1707663725634068000,4.34606787109375,-0.0018553733825683594,-0.010953903198242188,0.011419590562582016
1707663725644068000,4.356068115234375,-0.007385730743408203,-0.0018863677978515625,-0.00431448221206665
1707663725654068000,4.36606787109375,0.0037527084350585938,-0.008693695068359375,-0.004441976547241211
1707663725664068000,4.376068115234375,-0.0029926300048828125,-0.0057697296142578125,-0.0016079768538475037
1707663725674068000,4.38606787109375,-0.0029993057250976562,0.011292457580566406,0.007727820426225662
1707663725684068000,4.396068115234375,0.008274555206298828,0.001308441162109375,0.005199164152145386
1707663725694068000,4.40606787109375,-0.00054931640625,0.003360748291015625,0.013446563854813576
1707663725704068000,4.416068115234375,0.0055694580078125,0.0074329376220703125,0.01353096030652523
1707663725714068000,4.42606787109375,0.006476402282714844,-0.0033769607543945312,0.009050149470567703
1707663725724068000,4.436068115234375,0.0020036697387695312,0.00037860870361328125,0.012338370084762573
1707663725734068000,4.44606787109375,0.013888359069824219,0.0006971359252929688,0.008407514542341232
1707663725744068000,4.456068115234375,0.006472110748291016,-0.0020494461059570312,0.007626812905073166
1707663725754068000,4.46606787109375,0.0027403831481933594,0.001796722412109375,0.009514877572655678
1707663725764068000,4.476068115234375,-0.0011715888977050781,0.00022983551025390625,0.014952022582292557
1707663725774068000,4.48606787109375,0.007800102233886719,-0.0061588287353515625,0.011588264256715775
1707663725784068000,4.496068115234375,0.0065822601318359375,0.013978004455566406,0.006658732891082764
1707663725794068000,4.50606787109375,0.006718635559082031,-0.0015735626220703125,0.01087404415011406
1707663725804068000,4.516068115234375,0.002102375030517578,-0.0020399093627929688,0.011924602091312408
1707663725814068000,4.52606787109375,-0.0002875328063964844,-0.004260063171386719,0.01108827255666256
1707663725824068000,4.536068115234375,0.0039539337158203125,-0.008532524108886719,0.008287131786346436
1707663725834068000,4.54606787109375,0.0038251876831054688,-0.012226104736328125,0.012015115469694138
1707663725844068000,4.556068115234375,-0.00421142578125,-0.00652313232421875,0.00882924534380436
1707663725854068000,4.56606787109375,-0.006985664367675781,-0.00030231475830078125,0.010903708636760712
1707663725864068000,4.576068115234375,-0.009986400604248047,-0.0025625228881835938,0.005165174603462219
1707663725874068000,4.58606787109375,-0.01194000244140625,-0.002208709716796875,0.017964422702789307
1707663725884068000,4.596068115234375,-0.015470027923583984,-0.01987934112548828,0.0050111450254917145
1707663725894068000,4.60606787109375,-0.021865367889404297,-0.00148773193359375,-0.021380029618740082
1707663725904068000,4.616068115234375,-0.020313262939453125,-0.008221626281738281,0.02439839392900467
1707663725914068000,4.62606787109375,-0.012093067169189453,-0.02197742462158203,-0.02206786721944809
1707663725924068000,4.636068115234375,-0.005730152130126953,-0.006312370300292969,0.014206036925315857
1707663725934068000,4.64606787109375,-0.008953571319580078,-0.006888389587402344,-0.01043093204498291
1707663725944068000,4.656068115234375,-0.01442575454711914,-0.00041866302490234375,0.009633604437112808
1707663725954068000,4.66606787109375,-0.016811847686767578,0.0043354034423828125,0.007261425256729126
1707663725964068000,4.676068115234375,-0.0035762786865234375,0.0025739669799804688,0.0028339214622974396
1707663725974068000,4.68606787109375,-0.006781101226806641,0.0008678436279296875,-0.0074521079659461975
1707663725984068000,4.696068115234375,0.001976490020751953,-0.008154869079589844,0.0005715265870094299
1707663725994068000,4.70606787109375,-0.009533405303955078,0.018515586853027344,0.009388536214828491
1707663726004068000,4.716068115234375,-0.0012831687927246094,-0.0008020401000976562,-0.004216689616441727
1707663726014068000,4.72606787109375,0.008892059326171875,0.0007791519165039062,0.00176972895860672
1707663726024068000,4.736068115234375,0.003749847412109375,0.013834953308105469,0.001359403133392334
1707663726034068000,4.74606787109375,0.006813526153564453,0.012856483459472656,0.0016224533319473267
1707663726044068000,4.756068115234375,0.005337238311767578,0.0035419464111328125,-0.0039503127336502075
1707663726054068000,4.76606787109375,-0.004758358001708984,0.007905960083007812,-0.007952295243740082
1707663726064068000,4.776068115234375,0.0051784515380859375,0.0034971237182617188,0.013096516951918602
1707663726074068000,4.78606787109375,0.010787010192871094,0.0001010894775390625,0.005683116614818573
1707663726084068000,4.796068115234375,0.003619670867919922,-0.0018310546875,0.00630449503660202
1707663726094068000,4.80606787109375,0.013889789581298828,-0.0019769668579101562,0.00009128078818321228
1707663726104068000,4.816068115234375,0.008133888244628906,-0.0021657943725585938,0.00848693959414959
1707663726114068000,4.82606787109375,0.017484664916992188,-0.00785064697265625,0.012012887746095657
1707663726124068000,4.836068115234375,0.006594657897949219,-0.004489898681640625,0.00904969871044159
1707663726134068000,4.84606787109375,-0.007921218872070312,-0.008139610290527344,0.006310231983661652
1707663726144068000,4.856068115234375,0.009453773498535156,-0.01575946807861328,0.01471305824816227
1707663726154068000,4.86606787109375,-0.0021543502807617188,-0.013113021850585938,-0.0014222152531147003
1707663726164068000,4.876068115234375,-0.0018191337585449219,-0.011646270751953125,0.006523769348859787
1707663726174068000,4.88606787109375,0.00176239013671875,-0.0064563751220703125,0.006883876398205757
1707663726184068000,4.896068115234375,-0.002738475799560547,-0.005130767822265625,0.011562388390302658
1707663726194068000,4.90606787109375,-0.015819072723388672,0.0008420944213867188,-0.005198825150728226
1707663726204068000,4.916068115234375,-0.0019388198852539062,0.007618904113769531,0.01121576689183712
1707663726214068000,4.92606787109375,-0.010057926177978516,-0.0031490325927734375,0.01378224603831768
1707663726224068000,4.936068115234375,-0.010539531707763672,0.009893417358398438,-0.007404893636703491
1707663726234068000,4.94606787109375,-0.005436420440673828,0.009774208068847656,0.012191038578748703
1707663726244068000,4.956068115234375,-0.012598991394042969,-0.0035400390625,-0.008382309228181839
1707663726254068000,4.96606787109375,0.0020155906677246094,0.0024232864379882812,0.006525387987494469
1707663726264068000,4.976068115234375,0.00020456314086914062,0.0011577606201171875,-0.002715121954679489
1707663726274068000,4.98606787109375,-0.0034618377685546875,0.011212348937988281,0.005577754229307175
1707663726284068000,4.996068115234375,-0.01329183578491211,0.0066051483154296875,-0.0012206174433231354
1707663726294068000,5.00606787109375,-0.005406856536865234,0.008774757385253906,-0.00628015398979187
1707663726304068000,5.016068115234375,0.0065479278564453125,0.009720802307128906,0.006185028702020645
1707663726314068000,5.02606787109375,-0.002068042755126953,0.010354995727539062,-0.0003323368728160858
1707663726324068000,5.036068115234375,-0.0018982887268066406,0.009517669677734375,-0.0012895092368125916
1707663726334068000,5.04606787109375,0.012677669525146484,0.001758575439453125,-0.0060639530420303345
1707663726344068000,5.056068115234375,0.0030879974365234375,0.001129150390625,0.004104062914848328
1707663726354068000,5.06606787109375,0.005722999572753906,0.005402565002441406,-0.0005290284752845764
1707663726364068000,5.076068115234375,-0.0026154518127441406,-0.002689361572265625,0.006331294775009155
1707663726374068000,5.08606787109375,0.007673740386962891,0.0050048828125,-0.0033274777233600616
1707663726384068000,5.096068115234375,0.013161659240722656,0.0011320114135742188,0.013679791241884232
1707663726394068000,5.10606787109375,-0.00017690658569335938,-0.0044574737548828125,-0.01668444648385048
1707663726404068000,5.116068115234375,-0.011942386627197266,-0.005518913269042969,0.006361264735460281
1707663726414068000,5.12606787109375,0.0057163238525390625,-0.0026865005493164062,-0.008080337196588516
1707663726424068000,5.136068115234375,0.0003795623779296875,0.009129524230957031,0.011240221560001373
1707663726434068000,5.14606787109375,0.008001327514648438,-0.0033769607543945312,-0.013736456632614136
1707663726444068000,5.156068115234375,0.006468772888183594,0.004418373107910156,0.001231405884027481
1707663726454068000,5.16606787109375,0.006557941436767578,-0.014695167541503906,-0.0022795461118221283
1707663726464068000,5.176068115234375,0.005553245544433594,-0.010911941528320312,0.007048595696687698
1707663726474068000,5.18606787109375,0.008227825164794922,-0.0022840499877929688,0.006484776735305786
1707663726484068000,5.196068115234375,0.01400613784790039,-0.004650115966796875,0.004562504589557648
1707663726494068000,5.20606787109375,-0.009663581848144531,-0.015480995178222656,0.004825398325920105
1707663726504068000,5.216068115234375,-0.0033178329467773438,-0.00713348388671875,0.01217583566904068
1707663726514068000,5.22606787109375,0.003681659698486328,-0.0028409957885742188,0.0021139681339263916
1707663726524068000,5.236068115234375,0.0056934356689453125,0.0030755996704101562,0.0009653717279434204
1707663726534068000,5.24606787109375,0.007688999176025391,-0.009122848510742188,0.003604382276535034
1707663726544068000,5.256068115234375,0.0033016204833984375,-0.004584312438964844,0.0021781176328659058
1707663726554068000,5.26606787109375,-0.017709732055664062,-0.005434989929199219,0.004150524735450745
1707663726564068000,5.276068115234375,-0.014465808868408203,-0.00016117095947265625,0.005865834653377533
1707663726574068000,5.28606787109375,-0.003323078155517578,-0.0076141357421875,0.0011200681328773499
1707663726584068000,5.296068115234375,-0.0031995773315429688,0.0019207000732421875,0.002419888973236084
1707663726594068000,5.30606787109375,-0.00475311279296875,-0.005208015441894531,0.00835268385708332
1707663726604068000,5.316068115234375,-0.005398273468017578,0.008378982543945312,0.00045209750533103943
1707663726614068000,5.32606787109375,-0.004729270935058594,0.013314247131347656,0.006348395720124245
1707663726624068000,5.336068115234375,-0.006916999816894531,0.0034465789794921875,-0.003942519426345825
1707663726634068000,5.34606787109375,-0.002067089080810547,0.000274658203125,0.008448082953691483
1707663726644068000,5.356068115234375,0.003242015838623047,0.005217552185058594,0.0004918612539768219
1707663726654068000,5.36606787109375,0.008086681365966797,0.004578590393066406,0.000603746622800827
1707663726664068000,5.376068115234375,0.0003619194030761719,0.0021924972534179688,-0.005634836852550507
1707663726674068000,5.38606787109375,0.004192829132080078,0.0101165771484375,0.013415215536952019
1707663726684068000,5.396068115234375,0.0006642341613769531,0.02421092987060547,0.0030836164951324463
1707663726694068000,5.40606787109375,0.009902477264404297,-0.00156402587890625,-0.005843494087457657
1707663726704068000,5.416068115234375,0.009326457977294922,0.012312889099121094,0.0011009983718395233
1707663726714068000,5.42606787109375,0.007674694061279297,0.008638381958007812,-0.006416831165552139
1707663726724068000,5.436068115234375,0.006447315216064453,0.0019502639770507812,0.0011920705437660217
1707663726734068000,5.44606787109375,0.0024285316467285156,-0.0068035125732421875,-0.0048021189868450165
1707663726744068000,5.456068115234375,-0.003627777099609375,0.001514434814453125,-0.0016507282853126526
1707663726754068000,5.46606787109375,0.008848190307617188,-0.010601997375488281,-0.008133575320243835
1707663726764068000,5.476068115234375,-0.001967906951904297,-0.008896827697753906,0.003097042441368103
1707663726774068000,5.48606787109375,0.015750408172607422,-0.0007524490356445312,0.01041056215763092
1707663726784068000,5.496068115234375,0.017589092254638672,-0.025272369384765625,0.015489256009459496
1707663726794068000,5.50606787109375,0.01770305633544922,-0.009938240051269531,-0.004350826144218445
1707663726804068000,5.516068115234375,-0.006583690643310547,0.0044651031494140625,0.00932592898607254
1707663726814068000,5.52606787109375,0.010896682739257812,-0.013033866882324219,0.005627702921628952
1707663726824068000,5.536068115234375,0.010602474212646484,-0.005568504333496094,-0.016796071082353592
1707663726834068000,5.54606787109375,-0.0011591911315917969,-0.0022668838500976562,0.036392584443092346
1707663726844068000,5.556068115234375,-0.009043216705322266,-0.008864402770996094,-0.009289208799600601
1707663726854068000,5.56606787109375,0.0024623870849609375,-0.00580596923828125,-0.006837140768766403
1707663726864068000,5.576068115234375,-0.011576652526855469,0.002292633056640625,-0.004937145859003067
1707663726874068000,5.58606787109375,-0.0020956993103027344,0.012784004211425781,0.004263196140527725
1707663726884068000,5.596068115234375,0.0018391609191894531,0.006268501281738281,0.005571525543928146
1707663726894068000,5.60606787109375,0.003078460693359375,-0.0041675567626953125,-0.013477973639965057
1707663726904068000,5.616068115234375,-0.0042018890380859375,0.009013175964355469,0.012652449309825897
1707663726914068000,5.62606787109375,-0.011673450469970703,-0.007151603698730469,0.012932639569044113
1707663726924068000,5.636068115234375,-0.011048316955566406,0.006997108459472656,-0.012112904340028763
1707663726934068000,5.64606787109375,-0.0008945465087890625,-0.005297660827636719,-0.00851990282535553
1707663726944068000,5.656068115234375,0.00200653076171875,0.00716400146484375,0.010333552956581116
1707663726954068000,5.66606787109375,0.015839099884033203,0.010718345642089844,0.0022473447024822235
1707663726964068000,5.676068115234375,0.014079570770263672,0.0021572113037109375,-0.005602136254310608
1707663726974068000,5.68606787109375,-0.008905887603759766,-0.0021686553955078125,-0.004993822425603867
1707663726984068000,5.696068115234375,0.0045833587646484375,-0.007397651672363281,-0.0003120154142379761
1707663726994068000,5.70606787109375,0.014811515808105469,0.0008106231689453125,-0.007556162774562836
1707663727004068000,5.716068115234375,-0.0029430389404296875,-0.00390625,0.007946666330099106
1707663727014068000,5.72606787109375,-0.00023984909057617188,0.0031909942626953125,0.006131809204816818
1707663727024068000,5.736068115234375,0.006503582000732422,-0.020888328552246094,-0.010843545198440552
1707663727034068000,5.74606787109375,0.019794464111328125,0.0020818710327148438,-0.0025417469441890717
1707663727044068000,5.756068115234375,0.013621807098388672,0.00336456298828125,0.0054130591452121735
1707663727054068000,5.76606787109375,0.007238864898681641,-0.013392448425292969,-0.0003070048987865448
1707663727064068000,5.776068115234375,0.007316112518310547,-0.01158905029296875,0.0032230280339717865
1707663727074068000,5.78606787109375,0.014149665832519531,-0.013707160949707031,0.0030114538967609406
1707663727084068000,5.796068115234375,0.015669822692871094,-0.0019664764404296875,-0.008808601647615433
1707663727094068000,5.80606787109375,0.01520538330078125,-0.0014257431030273438,0.012989457696676254
1707663727104068000,5.816068115234375,0.002781391143798828,-0.018646240234375,-0.011192969977855682
1707663727114068000,5.82606787109375,0.002162456512451172,-0.008650779724121094,0.0069352928549051285
1707663727124068000,5.836068115234375,0.018746376037597656,-0.000835418701171875,-0.004521690309047699
1707663727134068000,5.84606787109375,0.005113124847412109,-0.0007524490356445312,0.002893064171075821
1707663727144068000,5.856068115234375,0.0031752586364746094,-0.0012655258178710938,-0.0003211013972759247
1707663727154068000,5.86606787109375,0.014326095581054688,0.00213623046875,0.01786973886191845
1707663727164068000,5.876068115234375,-0.0017948150634765625,0.015483856201171875,0.006658833473920822
1707663727174068000,5.88606787109375,-0.004280567169189453,-0.0036220550537109375,0.001034066081047058
1707663727184068000,5.896068115234375,0.003783702850341797,0.015206336975097656,0.001693185418844223
1707663727194068000,5.90606787109375,0.0040721893310546875,0.006180763244628906,0.011692095547914505
1707663727204068000,5.916068115234375,0.005049705505371094,-0.00006389617919921875,0.009287964552640915
1707663727214068000,5.92606787109375,-0.003459930419921875,0.008524894714355469,0.02197800576686859
1707663727224068000,5.936068115234375,0.009548664093017578,0.0044803619384765625,-0.0003061816096305847
1707663727234068000,5.94606787109375,-0.0037689208984375,0.000652313232421875,0.018831608816981316
1707663727244068000,5.956068115234375,0.005985736846923828,-0.0005807876586914062,-0.0037457235157489777
1707663727254068000,5.96606787109375,-0.0029587745666503906,-0.0008993148803710938,0.017633505165576935
1707663727264068000,5.976068115234375,-0.0035085678100585938,-0.015473365783691406,0.0011312887072563171
1707663727274068000,5.98606787109375,-0.005999088287353516,0.0030956268310546875,0.007088366895914078
1707663727284068000,5.996068115234375,-0.0015716552734375,-0.004459381103515625,0.017380110919475555
1707663727294068000,6.00606787109375,0.0000514984130859375,-0.009026527404785156,0.010384900495409966
1707663727304068000,6.016068115234375,0.007262229919433594,-0.0035028457641601562,0.01403791829943657
1707663727314068000,6.02606787109375,-0.012701988220214844,-0.0010690689086914062,0.004335623234510422
1707663727324068000,6.036068115234375,-0.01093292236328125,0.0024356842041015625,-0.0029515475034713745
1707663727334068000,6.04606787109375,0.007832527160644531,-0.013884544372558594,-0.015170179307460785
1707663727344068000,6.056068115234375,-0.00023508071899414062,0.002483367919921875,0.012166831642389297
1707663727354068000,6.06606787109375,-0.0031371116638183594,-0.00582122802734375,-0.000013735145330429077
1707663727364068000,6.076068115234375,-0.006766796112060547,-0.0049457550048828125,-0.001843474805355072
1707663727374068000,6.08606787109375,0.0057544708251953125,0.0054225921630859375,0.0022027380764484406
1707663727384068000,6.096068115234375,-0.0038299560546875,-0.015427589416503906,-0.005435086786746979
1707663727394068000,6.10606787109375,0.005975246429443359,0.024923324584960938,-0.029859289526939392
1707663727404068000,6.116068115234375,-0.021692276000976562,-0.0023403167724609375,0.021885382011532784
1707663727414068000,6.12606787109375,-0.015348434448242188,-0.020758628845214844,-0.03783877193927765
1707663727424068000,6.136068115234375,0.0005249977111816406,0.005382537841796875,0.014468487352132797
1707663727434068000,6.14606787109375,-0.0015463829040527344,0.008837699890136719,-0.014082536101341248
1707663727444068000,6.156068115234375,0.019652366638183594,0.00162506103515625,0.0051622651517391205
1707663727454068000,6.16606787109375,0.017412185668945312,0.006236076354980469,-0.02501777559518814
1707663727464068000,6.176068115234375,0.007657051086425781,0.0077228546142578125,0.0020116157829761505
1707663727474068000,6.18606787109375,0.007397651672363281,0.001773834228515625,-0.01533813402056694
1707663727484068000,6.196068115234375,-0.003677845001220703,-0.0018253326416015625,0.003520410507917404
1707663727494068000,6.20606787109375,0.0033254623413085938,0.0028657913208007812,0.0008866079151630402
1707663727504068000,6.216068115234375,-0.0028896331787109375,0.0006103515625,0.0006685853004455566
1707663727514068000,6.22606787109375,0.0017199516296386719,0.0026378631591796875,0.005143947899341583
1707663727524068000,6.236068115234375,0.005270957946777344,0.0060291290283203125,0.0028416886925697327
1707663727534068000,6.24606787109375,-0.0040073394775390625,0.006768226623535156,0.0010249800980091095
1707663727544068000,6.256068115234375,-0.009557247161865234,-0.0026636123657226562,0.006659362465143204
1707663727554068000,6.26606787109375,-0.0021157264709472656,0.007909774780273438,-0.008933380246162415
1707663727564068000,6.276068115234375,-0.0002865791320800781,0.0017328262329101562,0.03199628368020058
1707663727574068000,6.28606787109375,-0.01470327377319336,-0.012352943420410156,-0.04078199714422226
1707663727584068000,6.296068115234375,-0.007586479187011719,0.004422187805175781,0.027761436998844147
1707663727594068000,6.30606787109375,-0.002239704132080078,-0.0008945465087890625,-0.00989082083106041
1707663727604068000,6.316068115234375,-0.009572982788085938,-0.002582550048828125,0.0006218962371349335
1707663727614068000,6.32606787109375,-0.008874893188476562,0.005771636962890625,-0.006389133632183075
1707663727624068000,6.336068115234375,0.012126445770263672,0.011349678039550781,0.00765155628323555
1707663727634068000,6.34606787109375,0.006352901458740234,-0.00400543212890625,0.008493157103657722
1707663727644068000,6.356068115234375,-0.013313770294189453,-0.010531425476074219,-0.017118334770202637
1707663727654068000,6.36606787109375,0.0022153854370117188,-0.007937431335449219,0.021202560514211655
1707663727664068000,6.376068115234375,0.0016398429870605469,0.009593009948730469,-0.010008689016103745
1707663727674068000,6.38606787109375,0.007720947265625,0.009775161743164062,0.01654960960149765
1707663727684068000,6.396068115234375,0.005787372589111328,-0.054612159729003906,-0.00043657422065734863
1707663727694068000,6.40606787109375,-0.005053520202636719,0.009979248046875,0.00948818027973175
1707663727704068000,6.416068115234375,-0.04054880142211914,0.04409599304199219,0.008680768311023712
1707663727714068000,6.42606787109375,-0.01661539077758789,-0.05202770233154297,-0.00895032286643982
1707663727724068000,6.436068115234375,-0.022741317749023438,-0.017088890075683594,0.019251864403486252
1707663727734068000,6.44606787109375,-0.006597042083740234,-0.0051174163818359375,0.009966190904378891
1707663727744068000,6.456068115234375,-0.007263660430908203,0.01813983917236328,-0.008566133677959442
1707663727754068000,6.46606787109375,-0.0006494522094726562,0.017679214477539062,0.016728641465306282
1707663727764068000,6.476068115234375,-0.0012898445129394531,-0.011960029602050781,-0.04431457072496414
1707663727774068000,6.48606787109375,0.016460418701171875,0.0035419464111328125,0.052324213087558746
1707663727784068000,6.496068115234375,-0.0009145736694335938,0.010654449462890625,-0.04718014970421791
1707663727794068000,6.50606787109375,-0.0016207695007324219,0.031055450439453125,0.04880606010556221
1707663727804068000,6.516068115234375,0.02378368377685547,-0.03468608856201172,-0.027837581932544708
1707663727814068000,6.52606787109375,-0.010194778442382812,0.058620452880859375,0.03342237323522568
1707663727824068000,6.536068115234375,-0.032831668853759766,-0.0021266937255859375,-0.032009098678827286
1707663727834068000,6.54606787109375,-0.007996559143066406,-0.013322830200195312,0.02017839252948761
1707663727844068000,6.556068115234375,-0.008131027221679688,0.0058193206787109375,-0.007764410227537155
1707663727854068000,6.56606787109375,-0.0004258155822753906,-0.017920494079589844,0.006315372884273529
1707663727864068000,6.576068115234375,0.005264759063720703,-0.0036449432373046875,0.018091700971126556
1707663727874068000,6.58606787109375,0.004570960998535156,-0.016206741333007812,0.008680969476699829
1707663727884068000,6.596068115234375,0.0096435546875,-0.0016050338745117188,-0.002858612686395645
1707663727894068000,6.60606787109375,0.022739887237548828,-0.0060482025146484375,-0.028087876737117767
1707663727904068000,6.616068115234375,0.036365509033203125,-0.026317596435546875,0.008204005658626556
1707663727914068000,6.62606787109375,0.011607646942138672,-0.0027551651000976562,-0.0016869418323040009
1707663727924068000,6.636068115234375,0.016849040985107422,-0.00640869140625,0.011859357357025146
1707663727934068000,6.64606787109375,0.008047103881835938,-0.015279769897460938,-0.008442863821983337
1707663727944068000,6.656068115234375,0.01148843765258789,-0.004558563232421875,0.00009535253047943115
1707663727954068000,6.66606787109375,0.03277301788330078,-0.024684906005859375,-0.0012725591659545898
1707663727964068000,6.676068115234375,0.0346827507019043,-0.008292198181152344,-0.014778345823287964
1707663727974068000,6.68606787109375,0.023952007293701172,0.003292083740234375,-0.042610377073287964
1707663727984068000,6.696068115234375,0.007518291473388672,-0.013764381408691406,0.01779186725616455
1707663727994068000,6.70606787109375,0.011744022369384766,0.017851829528808594,-0.018685363233089447
1707663728004068000,6.716068115234375,0.0036749839782714844,-0.001857757568359375,0.0016780272126197815
1707663728014068000,6.72606787109375,-0.0004749298095703125,0.006466865539550781,-0.007637843489646912
1707663728024068000,6.736068115234375,-0.011719226837158203,0.019524574279785156,-0.00019777938723564148
1707663728034068000,6.74606787109375,-0.004376411437988281,0.006062507629394531,-0.006349891424179077
1707663728044068000,6.756068115234375,-0.012754440307617188,0.015524864196777344,-0.007132153958082199
1707663728054068000,6.76606787109375,-0.0056610107421875,-0.00768280029296875,0.01245591975748539
1707663728064068000,6.776068115234375,-0.004349708557128906,0.005919456481933594,-0.006990421563386917
1707663728074068000,6.78606787109375,-0.0036487579345703125,0.016376495361328125,-0.0015293769538402557
1707663728084068000,6.796068115234375,0.01638507843017578,0.005642890930175781,0.005387291312217712
1707663728094068000,6.80606787109375,0.009518146514892578,-0.019212722778320312,-0.002918556332588196
1707663728104068000,6.816068115234375,0.010169029235839844,0.0031023025512695312,0.0030070021748542786
1707663728114068000,6.82606787109375,-0.0020017623901367188,0.0038900375366210938,-0.007595524191856384
1707663728124068000,6.836068115234375,-0.003658294677734375,0.005710601806640625,0.019131693989038467
1707663728134068000,6.84606787109375,0.010714054107666016,-0.0034246444702148438,0.014630792662501335
1707663728144068000,6.856068115234375,0.006369113922119141,0.0022554397583007812,0.014108896255493164
1707663728154068000,6.86606787109375,0.005848407745361328,0.011832237243652344,0.022295869886875153
1707663728164068000,6.876068115234375,-0.014724254608154297,0.07159996032714844,-0.037267208099365234
1707663728174068000,6.88606787109375,0.11424493789672852,-0.17650222778320312,0.006821680814027786
1707663728184068000,6.896068115234375,0.15658855438232422,-0.009284019470214844,0.02719184011220932
1707663728194068000,6.90606787109375,0.029712200164794922,0.04257678985595703,-0.09604910016059875
1707663728204068000,6.916068115234375,0.054569244384765625,0.02332019805908203,0.09716866910457611
1707663728214068000,6.92606787109375,0.053861141204833984,0.05758094787597656,-0.04787714034318924
1707663728224068000,6.936068115234375,0.027686595916748047,-0.2986726760864258,0.048557523638010025
1707663728234068000,6.94606787109375,-0.0007200241088867188,0.2158203125,0.06289665400981903
1707663728244068000,6.956068115234375,0.04394245147705078,-0.04892539978027344,0.03767203167080879
1707663728254068000,6.96606787109375,-0.014564037322998047,-0.015062332153320312,0.000350411981344223
1707663728264068000,6.976068115234375,0.005092144012451172,-0.035408973693847656,-0.09853103011846542
1707663728274068000,6.98606787109375,0.0037374496459960938,0.0053863525390625,0.12322510778903961
1707663728284068000,6.996068115234375,-0.01168060302734375,0.038908958435058594,-0.03204715996980667
1707663728294068000,7.00606787109375,0.005721569061279297,0.016330718994140625,0.008978083729743958
1707663728304068000,7.016068115234375,0.01006460189819336,-0.0038433074951171875,0.0006763078272342682
1707663728314068000,7.02606787109375,0.01197671890258789,0.011670112609863281,0.018120484426617622
1707663728324068000,7.036068115234375,0.011063575744628906,0.007306098937988281,-0.007262449711561203
1707663728334068000,7.04606787109375,0.019333839416503906,0.018845558166503906,0.00016130506992340088
1707663728344068000,7.056068115234375,-0.0005779266357421875,0.011809349060058594,-0.015076886862516403
1707663728354068000,7.06606787109375,-0.005167961120605469,0.04598426818847656,-0.008460178971290588
1707663728364068000,7.076068115234375,0.00018930435180664062,-0.14389801025390625,-0.05234479159116745
1707663728374068000,7.08606787109375,-0.09938859939575195,0.17986774444580078,0.03328188508749008
1707663728384068000,7.096068115234375,0.033718109130859375,-0.1313953399658203,0.007620189338922501
1707663728394068000,7.10606787109375,-0.006163597106933594,-0.1366262435913086,0.0008514262735843658
1707663728404068000,7.116068115234375,-0.09076070785522461,-0.027173995971679688,-0.1417059302330017
1707663728414068000,7.12606787109375,-0.049921512603759766,0.0003204345703125,0.08416973054409027
1707663728424068000,7.136068115234375,-0.021871566772460938,-0.026497840881347656,-0.012631170451641083
1707663728434068000,7.14606787109375,0.0023169517517089844,0.03248405456542969,-0.010377999395132065
1707663728444068000,7.156068115234375,0.0316319465637207,-0.07294178009033203,-0.014637943357229233
1707663728454068000,7.16606787109375,-0.005989551544189453,0.05669212341308594,0.06859929859638214
1707663728464068000,7.176068115234375,-0.02700519561767578,0.042572975158691406,0.038207974284887314
1707663728474068000,7.18606787109375,-0.033379554748535156,-0.016533851623535156,-0.013897761702537537
1707663728484068000,7.196068115234375,-0.007939338684082031,-0.03125190734863281,-0.0075865574181079865
1707663728494068000,7.20606787109375,0.010517120361328125,-0.01817798614501953,-0.059301573783159256
1707663728504068000,7.216068115234375,0.03106546401977539,0.052120208740234375,-0.009680591523647308
1707663728514068000,7.22606787109375,0.027617454528808594,-0.007718086242675781,-0.09547707438468933
1707663728524068000,7.236068115234375,-0.00891876220703125,0.020424842834472656,0.0745968371629715
1707663728534068000,7.24606787109375,-0.026920795440673828,0.0049610137939453125,-0.09448358416557312
1707663728544068000,7.256068115234375,-0.014301300048828125,0.010891914367675781,0.1279982626438141
1707663728554068000,7.26606787109375,0.04045534133911133,-0.05962944030761719,-0.02043738216161728
1707663728564068000,7.276068115234375,0.002155780792236328,-0.015418052673339844,0.1137266755104065
1707663728574068000,7.28606787109375,-0.0049877166748046875,0.007083892822265625,-0.02859678491950035
1707663728584068000,7.296068115234375,0.014485836029052734,0.06330585479736328,0.06113804504275322
1707663728594068000,7.30606787109375,0.025254249572753906,0.03283119201660156,-0.0873614102602005
1707663728604068000,7.316068115234375,0.037348270416259766,0.04084491729736328,0.008846201002597809
1707663728614068000,7.32606787109375,0.0020995140075683594,-0.01874065399169922,-0.1077016294002533
1707663728624068000,7.336068115234375,-0.008957862854003906,-0.011590957641601562,0.13075172901153564
1707663728634068000,7.34606787109375,-0.027617931365966797,-0.01715850830078125,-0.07144953310489655
1707663728644068000,7.356068115234375,-0.004281520843505859,-0.01970195770263672,0.10663791000843048
1707663728654068000,7.36606787109375,-0.011600971221923828,-0.00201416015625,-0.07333004474639893
1707663728664068000,7.376068115234375,0.021055221557617188,0.047451019287109375,0.06866954267024994
1707663728674068000,7.38606787109375,0.03831195831298828,0.0078029632568359375,-0.08396817743778229
1707663728684068000,7.396068115234375,0.030069351196289062,0.032657623291015625,0.022370774298906326
1707663728694068000,7.40606787109375,-0.007516384124755859,0.010079383850097656,-0.04120401665568352
1707663728704068000,7.416068115234375,-0.029900074005126953,-0.02040863037109375,0.031074509024620056
1707663728714068000,7.42606787109375,-0.034976959228515625,-0.02571392059326172,0.02723577432334423
1707663728724068000,7.436068115234375,-0.010075092315673828,-0.0055332183837890625,0.03724680095911026
1707663728734068000,7.44606787109375,0.02435779571533203,0.030576705932617188,0.0765133649110794
1707663728744068000,7.456068115234375,0.025069236755371094,-0.0066776275634765625,0.04748796299099922
1707663728754068000,7.46606787109375,-0.056955814361572266,-0.0050067901611328125,0.100516177713871
1707663728764068000,7.476068115234375,-0.10366392135620117,-0.025168418884277344,-0.050426483154296875
1707663728774068000,7.48606787109375,-0.09073591232299805,-0.02176380157470703,-0.25500306487083435
1707663728784068000,7.496068115234375,0.052684783935546875,0.01980113983154297,-0.014996465295553207
1707663728794068000,7.50606787109375,0.2082056999206543,0.0845327377319336,0.012078065425157547
1707663728804068000,7.516068115234375,0.21169805526733398,0.08423423767089844,0.11447786539793015
1707663728814068000,7.52606787109375,-0.0675058364868164,0.02296924591064453,0.17134365439414978
1707663728824068000,7.536068115234375,-0.3221311569213867,-0.03514385223388672,-0.11319451034069061
1707663728834068000,7.54606787109375,-0.2973136901855469,-0.10283374786376953,-0.2798204720020294
1707663728844068000,7.556068115234375,0.15883350372314453,-0.1094980239868164,-0.023054122924804688
1707663728854068000,7.56606787109375,0.3718686103820801,-0.061565399169921875,0.055974844843149185
1707663728864068000,7.576068115234375,0.09693098068237305,0.07191944122314453,0.20574551820755005
1707663728874068000,7.58606787109375,-0.23180222511291504,0.17901992797851562,0.15385562181472778
1707663728884068000,7.596068115234375,-0.29766225814819336,-0.051529884338378906,-0.1029646024107933
1707663728894068000,7.60606787109375,-0.027274131774902344,-0.07297420501708984,0.06640404462814331
1707663728904068000,7.616068115234375,0.3274812698364258,-0.014904975891113281,-0.16986282169818878
1707663728914068000,7.62606787109375,0.3211545944213867,0.024105072021484375,0.1797436773777008
1707663728924068000,7.636068115234375,0.08075809478759766,0.17047500610351562,0.06742747128009796
1707663728934068000,7.64606787109375,-0.17174768447875977,0.062282562255859375,-0.02068798616528511
1707663728944068000,7.656068115234375,-0.317302942276001,-0.11171340942382812,0.04637919366359711
1707663728954068000,7.66606787109375,-0.10954809188842773,-0.1448345184326172,-0.159512460231781
1707663728964068000,7.676068115234375,0.17962265014648438,-0.09165668487548828,0.038270801305770874
1707663728974068000,7.68606787109375,0.1369781494140625,0.033211708068847656,-0.19986499845981598
1707663728984068000,7.696068115234375,-0.17880535125732422,-0.07273578643798828,-0.1603069305419922
1707663728994068000,7.70606787109375,-0.26982736587524414,-0.04084491729736328,0.459773987531662
1707663729004068000,7.716068115234375,0.1961216926574707,0.18015480041503906,0.3295193016529083
1707663729014068000,7.72606787109375,0.4449934959411621,0.26582813262939453,0.32351937890052795
1707663729024068000,7.736068115234375,0.20084762573242188,0.0933542251586914,0.28960278630256653
1707663729034068000,7.74606787109375,-0.23288416862487793,-0.032477378845214844,-0.3574492633342743
1707663729044068000,7.756068115234375,-0.4167032241821289,-0.24874401092529297,-0.35709303617477417
1707663729054068000,7.76606787109375,-0.03488779067993164,-0.10097026824951172,0.039031993597745895
1707663729064068000,7.776068115234375,0.16406917572021484,-0.11461925506591797,-0.680720329284668
1707663729074068000,7.78606787109375,0.033104896545410156,-0.06723213195800781,0.21420244872570038
1707663729084068000,7.796068115234375,0.0030488967895507812,0.2070751190185547,-0.21886765956878662
1707663729094068000,7.80606787109375,-0.024041175842285156,0.22282981872558594,0.19523485004901886
1707663729104068000,7.816068115234375,-0.07583141326904297,0.10165691375732422,0.06770697236061096
1707663729114068000,7.82606787109375,0.055586814880371094,-0.08409881591796875,0.39353036880493164
1707663729124068000,7.836068115234375,-0.029104232788085938,-0.048605918884277344,-0.2634422183036804
1707663729134068000,7.84606787109375,0.05605745315551758,-0.18138504028320312,0.6268302798271179
1707663729144068000,7.856068115234375,0.08254575729370117,-0.007296562194824219,-0.20087474584579468
1707663729154068000,7.86606787109375,-0.051247596740722656,0.14116287231445312,0.13416734337806702
1707663729164068000,7.876068115234375,-0.13349676132202148,-0.13784122467041016,-0.7894267439842224
1707663729174068000,7.88606787109375,-0.07369232177734375,-0.015844345092773438,-0.13838723301887512
1707663729184068000,7.896068115234375,0.030770301818847656,0.03532600402832031,-0.6095893383026123
1707663729194068000,7.90606787109375,0.23941421508789062,0.2987833023071289,0.2599862217903137
1707663729204068000,7.916068115234375,0.13978147506713867,0.044594764709472656,-0.13328255712985992
1707663729214068000,7.92606787109375,-0.10822486877441406,-0.020959854125976562,0.6491184234619141
1707663729224068000,7.936068115234375,-0.19567537307739258,-0.2001028060913086,-0.16569069027900696
1707663729234068000,7.94606787109375,-0.046239376068115234,-0.08383655548095703,0.3127645254135132
1707663729244068000,7.956068115234375,0.22080516815185547,-0.08571434020996094,-0.2611428201198578
1707663729254068000,7.96606787109375,0.2320551872253418,0.05792427062988281,-0.01982858031988144
1707663729264068000,7.976068115234375,-0.04306745529174805,0.05218982696533203,0.025361251085996628
1707663729274068000,7.98606787109375,-0.1548013687133789,0.2088155746459961,0.22782132029533386
1707663729284068000,7.996068115234375,-0.08895444869995117,-0.07835197448730469,-0.35914066433906555
1707663729294068000,8.00606787109375,-0.029274463653564453,-0.11136054992675781,0.18635530769824982
1707663729304068000,8.016068115234376,0.11753320693969727,-0.020786285400390625,-0.14073815941810608
1707663729314068000,8.02606787109375,0.07729148864746094,0.021851539611816406,0.25484323501586914
1707663729324068000,8.036068115234375,0.0015988349914550781,-0.03918266296386719,0.0022748075425624847
1707663729334068000,8.04606787109375,-0.07859611511230469,0.03907203674316406,0.09772184491157532
1707663729344068000,8.056068115234375,-0.06874513626098633,-0.013854026794433594,0.06167759746313095
1707663729354068000,8.06606787109375,0.1236734390258789,0.022710800170898438,0.05440766364336014
1707663729364068000,8.076068115234374,0.14764022827148438,-0.00060272216796875,0.046047382056713104
1707663729374068000,8.08606787109375,-0.07761526107788086,0.0045318603515625,0.14785124361515045
1707663729384068000,8.096068115234376,-0.21640229225158691,-0.015498161315917969,-0.002616666257381439
1707663729394068000,8.10606787109375,-0.10077095031738281,-0.03888130187988281,0.0789024829864502
1707663729404068000,8.116068115234375,0.12756776809692383,-0.018148422241210938,-0.05069565773010254
1707663729414068000,8.12606787109375,0.22535943984985352,0.09189987182617188,0.0260514784604311
1707663729424068000,8.136068115234375,0.10082340240478516,0.08278179168701172,0.04806045815348625
1707663729434068000,8.14606787109375,-0.06030082702636719,0.034644126892089844,0.002608923241496086
1707663729444068000,8.156068115234374,-0.1442093849182129,0.05719757080078125,0.10349930077791214
1707663729454068000,8.16606787109375,-0.13756084442138672,-0.10894966125488281,0.02656109817326069
1707663729464068000,8.176068115234376,-0.0278778076171875,-0.15490245819091797,0.08193295449018478
1707663729474068000,8.18606787109375,0.06606149673461914,-0.09960269927978516,-0.12096348404884338
1707663729484068000,8.196068115234375,0.11832618713378906,0.04966449737548828,0.08135981112718582
1707663729494068000,8.20606787109375,0.06152534484863281,0.12483596801757812,-0.14672595262527466
1707663729504068000,8.216068115234375,-0.04600191116333008,0.12888145446777344,0.06286216527223587
1707663729514068000,8.22606787109375,-0.047297000885009766,0.020150184631347656,-0.18062308430671692
1707663729524068000,8.236068115234374,0.01833820343017578,0.004314422607421875,0.006997654214501381
1707663729534068000,8.24606787109375,0.008835315704345703,-0.0849447250366211,-0.16734296083450317
1707663729544068000,8.256068115234376,-0.004205226898193359,-0.055438995361328125,0.0666753500699997
1707663729554068000,8.26606787109375,-0.07335996627807617,-0.046225547790527344,-0.09091366082429886
1707663729564068000,8.276068115234375,-0.022580623626708984,-0.0150604248046875,0.05825789272785187
1707663729574068000,8.28606787109375,0.057094573974609375,-0.020572662353515625,-0.156000554561615
1707663729584068000,8.296068115234375,0.15324926376342773,0.029410362243652344,0.02766093984246254
1707663729594068000,8.30606787109375,0.11846017837524414,0.04980945587158203,-0.17710080742835999
1707663729604068000,8.316068115234375,-0.0190277099609375,0.027387619018554688,-0.010602802038192749
1707663729614068000,8.32606787109375,-0.1570720672607422,0.01764392852783203,-0.06757018715143204
1707663729624068000,8.336068115234376,-0.07262897491455078,0.024748802185058594,0.12372098863124847
1707663729634068000,8.34606787109375,0.05514955520629883,-0.13608551025390625,-0.24197806417942047
1707663729644068000,8.356068115234375,0.1258068084716797,-0.04284191131591797,0.06191354617476463
1707663729654068000,8.36606787109375,0.02227783203125,0.03849220275878906,0.006164196878671646
1707663729664068000,8.376068115234375,-0.0916295051574707,0.06156730651855469,0.1472351849079132
1707663729674068000,8.38606787109375,-0.08973979949951172,-0.015444755554199219,-0.20176458358764648
1707663729684068000,8.396068115234375,0.052197933197021484,0.05923652648925781,0.08963750302791595
1707663729694068000,8.40606787109375,0.10725116729736328,-0.022200584411621094,-0.07599463313817978
1707663729704068000,8.416068115234374,0.0535736083984375,0.0000362396240234375,0.07241228967905045
1707663729714068000,8.42606787109375,-0.011658668518066406,0.0289306640625,0.12982077896595
1707663729724068000,8.436068115234375,-0.056282997131347656,0.009845733642578125,-0.019552454352378845
1707663729734068000,8.44606787109375,-0.003987312316894531,0.060298919677734375,0.2798480689525604
1707663729744068000,8.456068115234375,0.1122584342956543,-0.12894821166992188,-0.13577334582805634
1707663729754068000,8.46606787109375,0.04279613494873047,0.041777610778808594,0.05559312924742699
1707663729764068000,8.476068115234375,-0.0039825439453125,0.10336780548095703,0.010644286870956421
1707663729774068000,8.48606787109375,-0.012340545654296875,0.04118824005126953,0.08569719642400742
1707663729784068000,8.496068115234374,0.0033092498779296875,-0.0008058547973632812,-0.057214152067899704
1707663729794068000,8.50606787109375,0.05133533477783203,-0.040920257568359375,0.11417911946773529
1707663729804068000,8.516068115234376,0.017378807067871094,-0.040396690368652344,-0.09251663833856583
1707663729814068000,8.52606787109375,0.007720947265625,-0.016170501708984375,0.22732554376125336
1707663729824068000,8.536068115234375,-0.0810389518737793,-0.024662017822265625,-0.20677940547466278
1707663729834068000,8.54606787109375,-0.06207990646362305,0.002960205078125,0.20053449273109436
1707663729844068000,8.556068115234375,-0.019431591033935547,0.0059185028076171875,-0.10467585921287537
1707663729854068000,8.56606787109375,0.08576631546020508,0.014792442321777344,0.22279495000839233
1707663729864068000,8.576068115234374,0.07353401184082031,0.006760597229003906,-0.12638519704341888
1707663729874068000,8.58606787109375,0.023482799530029297,0.0051097869873046875,0.05556780844926834
1707663729884068000,8.596068115234376,-0.07405424118041992,-0.042870521545410156,-0.10307913273572922
1707663729894068000,8.60606787109375,-0.039067745208740234,0.012204170227050781,0.01478133350610733
1707663729904068000,8.616068115234375,-0.006763935089111328,-0.018408775329589844,-0.09559029340744019
1707663729914068000,8.62606787109375,0.004879951477050781,-0.0072040557861328125,-0.03886329010128975
1707663729924068000,8.636068115234375,-0.0676717758178711,0.035902976989746094,0.010947607457637787
1707663729934068000,8.64606787109375,-0.02046680450439453,-0.033141136169433594,0.017592769116163254
1707663729944068000,8.656068115234374,0.035382747650146484,-0.03118896484375,-0.06570197641849518
1707663729954068000,8.66606787109375,0.08838224411010742,-0.11554431915283203,-0.14829804003238678
1707663729964068000,8.676068115234376,0.048252105712890625,0.12694168090820312,0.20439660549163818
1707663729974068000,8.68606787109375,0.016503334045410156,-0.10594844818115234,-0.20914733409881592
1707663729984068000,8.696068115234375,-0.09747076034545898,0.10464000701904297,0.07262134552001953
1707663729994068000,8.70606787109375,-0.09748411178588867,0.07146263122558594,-0.06235083192586899
1707663730004068000,8.716068115234375,0.017292499542236328,-0.07318878173828125,-0.0660891905426979
1707663730014068000,8.72606787109375,0.07807445526123047,0.00814056396484375,-0.029650479555130005
1707663730024068000,8.736068115234374,0.11915254592895508,-0.012308120727539062,0.07628997415304184
1707663730034068000,8.74606787109375,0.024965286254882812,0.05321693420410156,-0.04553978890180588
1707663730044068000,8.756068115234376,-0.07339906692504883,0.057684898376464844,0.03396185487508774
1707663730054068000,8.76606787109375,-0.07307004928588867,-0.028998374938964844,-0.27598798274993896
1707663730064068000,8.776068115234375,-0.056115150451660156,-0.0991659164428711,0.20265887677669525
1707663730074068000,8.78606787109375,-0.042057037353515625,-0.08043289184570312,-0.00690869614481926
1707663730084068000,8.796068115234375,0.027893543243408203,-0.024788856506347656,0.28720593452453613
1707663730094068000,8.80606787109375,0.06863832473754883,0.06526756286621094,-0.28571540117263794
1707663730104068000,8.816068115234375,0.094940185546875,0.054157257080078125,0.029953232035040855
1707663730114068000,8.82606787109375,0.042613983154296875,-0.022640228271484375,-0.18889480829238892
1707663730124068000,8.836068115234376,0.008272171020507812,0.020882606506347656,0.1587693691253662
1707663730134068000,8.84606787109375,-0.040111541748046875,-0.12815284729003906,-0.16771873831748962
1707663730144068000,8.856068115234375,-0.08025217056274414,0.13753890991210938,0.42660853266716003
1707663730154068000,8.86606787109375,-0.0518040657043457,-0.15407752990722656,-0.17106613516807556
1707663730164068000,8.876068115234375,0.04304313659667969,0.06366920471191406,0.20224454998970032
1707663730174068000,8.88606787109375,0.05360984802246094,-0.05758380889892578,-0.26625582575798035
1707663730184068000,8.896068115234375,0.11664819717407227,0.12114238739013672,0.27254927158355713
1707663730194068000,8.90606787109375,0.03553915023803711,-0.08110332489013672,-0.11998102068901062
1707663730204068000,8.916068115234374,-0.06832695007324219,0.12172317504882812,0.1182873398065567
1707663730214068000,8.92606787109375,-0.09473609924316406,-0.057091712951660156,-0.26343706250190735
1707663730224068000,8.936068115234375,-0.06390905380249023,-0.061644554138183594,0.18989074230194092
1707663730234068000,8.94606787109375,-0.04451894760131836,-0.03220176696777344,-0.13739071786403656
1707663730244068000,8.956068115234375,0.07260751724243164,-0.027799606323242188,0.11426347494125366
1707663730254068000,8.96606787109375,0.08554935455322266,0.02055835723876953,0.019455038011074066
1707663730264068000,8.976068115234375,0.07894182205200195,0.08684253692626953,0.14432698488235474
1707663730274068000,8.98606787109375,0.012975692749023438,0.025671005249023438,-0.06667853891849518
1707663730284068000,8.996068115234374,0.0008654594421386719,-0.0073528289794921875,0.02832810953259468
1707663730294068000,9.00606787109375,-0.04906654357910156,0.03133106231689453,-0.16955307126045227
1707663730304068000,9.016068115234376,-0.07102298736572266,-0.16434288024902344,0.18640315532684326
1707663730314068000,9.02606787109375,-0.18312406539916992,0.1805257797241211,-0.0008923448622226715
1707663730324068000,9.036068115234375,-0.07389450073242188,-0.09606647491455078,-0.04085278511047363
1707663730334068000,9.04606787109375,0.10618209838867188,0.12097549438476562,0.02356906235218048
1707663730344068000,9.056068115234375,0.10921812057495117,0.0337066650390625,0.020054010674357414
1707663730354068000,9.06606787109375,-0.00007152557373046875,0.01786041259765625,-0.0685868114233017
1707663730364068000,9.076068115234374,-0.022170543670654297,0.00794219970703125,-0.0004666075110435486
1707663730374068000,9.08606787109375,0.03827190399169922,0.019762039184570312,-0.004395168274641037
1707663730384068000,9.096068115234376,0.027199745178222656,-0.04063701629638672,0.10860803723335266
1707663730394068000,9.10606787109375,-0.038953304290771484,-0.04005908966064453,-0.17385214567184448
1707663730404068000,9.116068115234375,-0.10106468200683594,-0.023881912231445312,-0.017812654376029968
1707663730414068000,9.12606787109375,-0.0332331657409668,0.016820907592773438,0.034830398857593536
1707663730424068000,9.136068115234375,0.08228635787963867,0.014706611633300781,0.07217346131801605
1707663730434068000,9.14606787109375,0.12833642959594727,-0.06135082244873047,-0.11438357830047607
1707663730444068000,9.156068115234374,0.07376718521118164,0.041049957275390625,0.05855565890669823
1707663730454068000,9.16606787109375,-0.04260730743408203,-0.006369590759277344,-0.08861926198005676
1707663730464068000,9.176068115234376,-0.11754179000854492,0.009215354919433594,0.10154567658901215
1707663730474068000,9.18606787109375,-0.12719202041625977,-0.03477191925048828,-0.1765720546245575
1707663730484068000,9.196068115234375,0.0018458366394042969,0.012645721435546875,0.06021670252084732
1707663730494068000,9.20606787109375,0.15265369415283203,-0.02196216583251953,-0.014006908982992172
1707663730504068000,9.216068115234375,0.0982208251953125,0.06318855285644531,0.11674997210502625
1707663730514068000,9.22606787109375,-0.0014638900756835938,-0.051024436950683594,-0.15405598282814026
1707663730524068000,9.236068115234374,-0.0795450210571289,0.0632638931274414,0.12435797601938248
1707663730534068000,9.24606787109375,-0.01295328140258789,-0.007904052734375,-0.05465538799762726
1707663730544068000,9.256068115234376,0.011684894561767578,-0.00389862060546875,-0.0025316737592220306
1707663730554068000,9.26606787109375,-0.0008668899536132812,-0.02353191375732422,-0.023005783557891846
1707663730564068000,9.276068115234375,-0.06406641006469727,-0.01833057403564453,0.06392588466405869
1707663730574068000,9.28606787109375,-0.04512310028076172,0.0030241012573242188,0.0382092110812664
1707663730584068000,9.296068115234375,0.055176734924316406,0.016503334045410156,-0.006360236555337906
1707663730594068000,9.30606787109375,0.13153791427612305,-0.101104736328125,-0.009863894432783127
1707663730604068000,9.316068115234375,0.07582283020019531,0.08200550079345703,0.09861332923173904
1707663730614068000,9.32606787109375,0.0016222000122070312,-0.06292247772216797,-0.05389302596449852
1707663730624068000,9.336068115234376,-0.07189750671386719,0.06151103973388672,-0.018793031573295593
1707663730634068000,9.34606787109375,-0.0850062370300293,-0.03629875183105469,-0.06005130335688591
1707663730644068000,9.356068115234375,-0.06261014938354492,0.009563446044921875,-0.009426034986972809
1707663730654068000,9.36606787109375,0.04190826416015625,-0.06240367889404297,0.15148136019706726
1707663730664068000,9.376068115234375,0.11660146713256836,-0.014720916748046875,-0.0008054301142692566
1707663730674068000,9.38606787109375,0.06007957458496094,0.06456375122070312,0.10502557456493378
1707663730684068000,9.396068115234375,-0.005403995513916016,-0.01880645751953125,-0.09738203138113022
1707663730694068000,9.40606787109375,-0.04184913635253906,0.07681083679199219,0.018843960016965866
1707663730704068000,9.416068115234374,0.026361465454101562,-0.11730289459228516,-0.07059057056903839
1707663730714068000,9.42606787109375,-0.0422062873840332,0.01712512969970703,-0.03618201985955238
1707663730724068000,9.436068115234375,-0.07639217376708984,-0.04558086395263672,0.015353597700595856
1707663730734068000,9.44606787109375,-0.10602140426635742,-0.06870746612548828,-0.23788943886756897
1707663730744068000,9.456068115234375,-0.06383800506591797,0.018558502197265625,-0.017727576196193695
1707663730754068000,9.46606787109375,0.12590408325195312,-0.41808032989501953,-0.014695253223180771
1707663730764068000,9.476068115234375,0.8785929679870605,0.5277690887451172,1.0509828329086304
1707663730774068000,9.48606787109375,0.7862758636474609,-0.15288448333740234,-0.9321683645248413
1707663730784068000,9.496068115234374,-0.1590275764465332,0.2729835510253906,-0.2776694893836975
1707663730794068000,9.50606787109375,-0.3266124725341797,0.012572288513183594,0.26056650280952454
1707663730804068000,9.516068115234376,-0.35442590713500977,0.07744693756103516,0.24110114574432373
1707663730814068000,9.52606787109375,-0.31687498092651367,-0.054718971252441406,-0.1488882601261139
1707663730824068000,9.536068115234375,-0.2894470691680908,0.1334991455078125,0.05327804759144783
1707663730834068000,9.54606787109375,0.22957324981689453,-0.08797645568847656,0.17432159185409546
1707663730844068000,9.556068115234375,0.3331618309020996,-0.14636898040771484,-0.7309430241584778
1707663730854068000,9.56606787109375,0.10401439666748047,0.030330657958984375,0.5748264789581299
1707663730864068000,9.576068115234374,0.02692413330078125,-0.15680694580078125,-0.2708306312561035
1707663730874068000,9.58606787109375,-0.06690645217895508,0.06801986694335938,0.21279150247573853
1707663730884068000,9.596068115234376,0.0018949508666992188,-0.019254684448242188,-0.026384007185697556
1707663730894068000,9.60606787109375,0.2994399070739746,0.07604694366455078,0.1575830578804016
1707663730904068000,9.616068115234375,0.03350353240966797,-0.04572868347167969,-0.17529314756393433
1707663730914068000,9.62606787109375,-0.03760528564453125,0.1536273956298828,0.19003652036190033
1707663730924068000,9.636068115234375,0.08295488357543945,-0.1817474365234375,-0.4391236901283264
1707663730934068000,9.64606787109375,0.05957794189453125,-0.1519298553466797,0.16623835265636444
1707663730944068000,9.656068115234374,0.03553152084350586,-0.22864341735839844,-0.2072504162788391
1707663730954068000,9.66606787109375,0.15041351318359375,0.20961952209472656,0.30643731355667114
1707663730964068000,9.676068115234376,0.2947850227355957,0.3021688461303711,-0.6109840869903564
1707663730974068000,9.68606787109375,0.2978701591491699,0.18392181396484375,0.9736558794975281
1707663730984068000,9.696068115234375,0.1500997543334961,-0.036663055419921875,0.0019004382193088531
1707663730994068000,9.70606787109375,0.06317710876464844,0.22523117065429688,0.0019271261990070343
1707663731004068000,9.716068115234375,-0.05559206008911133,-0.3248786926269531,-0.207545205950737
1707663731014068000,9.72606787109375,-0.04840803146362305,-0.059281349182128906,0.012286003679037094
1707663731024068000,9.736068115234374,-0.1025094985961914,0.027538299560546875,0.005204327404499054
1707663731034068000,9.74606787109375,-0.0611119270324707,0.006134033203125,-0.1911138892173767
1707663731044068000,9.756068115234376,0.054204463958740234,0.0415802001953125,0.022293344140052795
1707663731054068000,9.76606787109375,0.0649724006652832,0.036307334899902344,0.07025246322154999
1707663731064068000,9.776068115234375,-0.0729970932006836,0.03799152374267578,-0.003132302314043045
1707663731074068000,9.78606787109375,-0.11285161972045898,-0.07520866394042969,0.05341733992099762
1707663731084068000,9.796068115234375,-0.12141656875610352,-0.05097770690917969,0.03449882194399834
1707663731094068000,9.80606787109375,-0.10469913482666016,-0.0025167465209960938,0.09210959076881409
1707663731104068000,9.816068115234375,0.03547525405883789,-0.013760566711425781,-0.01781865581870079
1707663731114068000,9.82606787109375,0.0397639274597168,0.03485107421875,-0.017020277678966522
1707663731124068000,9.836068115234376,-0.034881591796875,0.04622936248779297,-0.05320632457733154
1707663731134068000,9.84606787109375,-0.08932733535766602,0.009717941284179688,0.05184204876422882
1707663731144068000,9.856068115234375,-0.10908889770507812,-0.022939682006835938,-0.026980828493833542
1707663731154068000,9.86606787109375,-0.1015019416809082,-0.025323867797851562,-0.07250000536441803
1707663731164068000,9.876068115234375,-0.0643305778503418,-0.04541206359863281,0.1485607624053955
1707663731174068000,9.88606787109375,-0.05685997009277344,-0.045142173767089844,0.08186755329370499
1707663731184068000,9.896068115234375,-0.061676025390625,-0.0013666152954101562,-0.05426650494337082
1707663731194068000,9.90606787109375,0.0087890625,0.029697418212890625,0.057905662804841995
1707663731204068000,9.916068115234374,0.04639148712158203,0.0183563232421875,0.04947952926158905
1707663731214068000,9.92606787109375,-0.0032744407653808594,0.031017303466796875,0.017141368240118027
1707663731224068000,9.936068115234375,-0.055233001708984375,0.01837444305419922,-0.04125148430466652
1707663731234068000,9.94606787109375,-0.03967761993408203,-0.04026222229003906,0.053416118025779724
1707663731244068000,9.956068115234375,-0.01531839370727539,-0.013962745666503906,-0.08095452189445496
1707663731254068000,9.96606787109375,0.012194156646728516,0.007590293884277344,0.03783785551786423
1707663731264068000,9.976068115234375,0.021611690521240234,-0.032759666442871094,-0.06528182327747345
1707663731274068000,9.98606787109375,0.05585002899169922,0.033959388732910156,-0.009818684309720993
1707663731284068000,9.996068115234374,0.07296943664550781,0.05896472930908203,0.07084041088819504
1707663731294068000,10.00606787109375,0.08957481384277344,-0.008327484130859375,-0.07444293797016144
1707663731304068000,10.016068115234376,0.025561809539794922,-0.009069442749023438,0.012061577290296555
1707663731314068000,10.02606787109375,-0.01064300537109375,-0.028406143188476562,0.04280461370944977
1707663731324068000,10.036068115234375,-0.03735923767089844,-0.09432315826416016,-0.01998266577720642
1707663731334068000,10.04606787109375,-0.01569843292236328,-0.005986213684082031,-0.03648039326071739
1707663731344068000,10.056068115234375,0.031948089599609375,0.02595996856689453,-0.010444708168506622
1707663731354068000,10.06606787109375,0.03649139404296875,-0.0012359619140625,0.0004221387207508087
1707663731364068000,10.076068115234374,0.0329747200012207,0.04121112823486328,-0.051096897572278976
1707663731374068000,10.08606787109375,0.018082141876220703,0.024732589721679688,-0.03353698179125786
1707663731384068000,10.096068115234376,0.04528236389160156,-0.0555267333984375,-0.02054702863097191
1707663731394068000,10.10606787109375,0.002658367156982422,0.0035085678100585938,-0.029218222945928574
1707663731404068000,10.116068115234375,-0.06071615219116211,0.0022630691528320312,-0.003027554601430893
1707663731414068000,10.12606787109375,-0.12050151824951172,-0.018639564514160156,-0.059680335223674774
1707663731424068000,10.136068115234375,-0.14306211471557617,0.03195762634277344,0.09358169138431549
1707663731434068000,10.14606787109375,-0.0909123420715332,0.0012540817260742188,-0.09371397644281387
1707663731444068000,10.156068115234374,0.009271621704101562,-0.023771286010742188,0.06284914910793304
1707663731454068000,10.16606787109375,0.04989004135131836,-0.015806198120117188,-0.005999963730573654
1707663731464068000,10.176068115234376,-0.02475452423095703,-0.020399093627929688,0.03155513107776642
1707663731474068000,10.18606787109375,-0.0787363052368164,-0.02207183837890625,0.015027686953544617
1707663731484068000,10.196068115234375,-0.07913017272949219,0.01710033416748047,0.05024503171443939
1707663731494068000,10.20606787109375,-0.0465240478515625,-0.00527191162109375,-0.042409498244524
1707663731504068000,10.216068115234375,-0.014552593231201172,0.019371986389160156,-0.0317133292555809
1707663731514068000,10.22606787109375,-0.026895999908447266,-0.016661643981933594,0.02190832793712616
1707663731524068000,10.236068115234374,-0.033971309661865234,0.02289104461669922,-0.06956690549850464
1707663731534068000,10.24606787109375,-0.03156328201293945,0.031122207641601562,0.0035358741879463196
1707663731544068000,10.256068115234376,0.030446529388427734,-0.024773597717285156,0.043884746730327606
1707663731554068000,10.26606787109375,0.045475006103515625,-0.014698028564453125,-0.027317319065332413
1707663731564068000,10.276068115234375,0.018055438995361328,0.0085906982421875,0.10783135145902634
1707663731574068000,10.28606787109375,-0.001544952392578125,-0.02109050750732422,0.02247731387615204
1707663731584068000,10.296068115234375,-0.0365753173828125,0.014372825622558594,0.04107213020324707
1707663731594068000,10.30606787109375,-0.042159080505371094,0.02527332305908203,-0.026032183319330215
1707663731604068000,10.316068115234375,-0.0009713172912597656,-0.020071983337402344,-0.031625233590602875
1707663731614068000,10.32606787109375,0.02619647979736328,0.043212890625,0.0379607155919075
1707663731624068000,10.336068115234376,0.0012612342834472656,-0.01627635955810547,-0.07157302647829056
1707663731634068000,10.34606787109375,-0.020773887634277344,-0.028075218200683594,0.03724794089794159
1707663731644068000,10.356068115234375,0.002883434295654297,0.000583648681640625,0.0031768903136253357
1707663731654068000,10.36606787109375,0.014801979064941406,-0.01828289031982422,0.05427113547921181
1707663731664068000,10.376068115234375,0.07207393646240234,0.02284717559814453,0.017963549122214317
1707663731674068000,10.38606787109375,0.06421995162963867,-0.010046005249023438,0.024783357977867126
1707663731684068000,10.396068115234375,-0.006409168243408203,0.011300086975097656,0.005877144634723663
1707663731694068000,10.40606787109375,-0.05210065841674805,0.03553009033203125,-0.029821917414665222
1707663731704068000,10.416068115234374,-0.04628753662109375,-0.03954505920410156,0.021325061097741127
1707663731714068000,10.42606787109375,-0.0016160011291503906,-0.02508831024169922,-0.06542618572711945
1707663731724068000,10.436068115234375,0.02664041519165039,-0.015951156616210938,-0.03696821630001068
1707663731734068000,10.44606787109375,0.05222177505493164,-0.014596939086914062,0.0318150594830513
1707663731744068000,10.456068115234375,0.0039825439453125,0.04906177520751953,-0.028914235532283783
1707663731754068000,10.46606787109375,-0.050266265869140625,0.0027141571044921875,0.037155721336603165
1707663731764068000,10.476068115234375,-0.019186973571777344,-0.037163734436035156,-0.029265224933624268
1707663731774068000,10.48606787109375,-0.013876914978027344,0.00206756591796875,0.015682125464081764
1707663731784068000,10.496068115234374,0.0476384162902832,-0.00018310546875,-0.03628665208816528
1707663731794068000,10.50606787109375,0.011765480041503906,-0.0013399124145507812,0.007957905530929565
1707663731804068000,10.516068115234376,-0.0982809066772461,0.008246421813964844,0.015385933220386505
1707663731814068000,10.52606787109375,-0.12731361389160156,-0.011045455932617188,-0.048448942601680756
1707663731824068000,10.536068115234375,-0.04758167266845703,-0.008702278137207031,0.02938063256442547
1707663731834068000,10.54606787109375,0.030903339385986328,-0.031477928161621094,0.029010463505983353
1707663731844068000,10.556068115234375,0.031229496002197266,-0.01726245880126953,-0.00911073386669159
1707663731854068000,10.56606787109375,-0.04746294021606445,0.024361610412597656,0.004101376980543137
1707663731864068000,10.576068115234374,-0.05971097946166992,-0.008965492248535156,-0.011903226375579834
1707663731874068000,10.58606787109375,-0.04469156265258789,0.005164146423339844,0.053570281714200974
1707663731884068000,10.596068115234376,0.007441043853759766,0.03364372253417969,-0.09101328998804092
1707663731894068000,10.60606787109375,0.014486312866210938,-0.02054595947265625,-0.006075505167245865
1707663731904068000,10.616068115234375,-0.02014636993408203,0.028328895568847656,-0.007534720003604889
1707663731914068000,10.62606787109375,-0.01750469207763672,0.02756023406982422,0.006665442138910294
1707663731924068000,10.636068115234375,-0.02991962432861328,0.01978778839111328,0.037921518087387085
1707663731934068000,10.64606787109375,-0.0053386688232421875,0.0006856918334960938,0.017822887748479843
1707663731944068000,10.656068115234374,0.005898952484130859,-0.044879913330078125,0.017682788893580437
1707663731954068000,10.66606787109375,0.03529500961303711,0.0035295486450195312,0.09398308396339417
1707663731964068000,10.676068115234376,0.0018429756164550781,-0.036147117614746094,-0.07263520359992981
1707663731974068000,10.68606787109375,0.005711555480957031,0.009181976318359375,0.01885516569018364
1707663731984068000,10.696068115234375,0.020871639251708984,0.02832794189453125,-0.09142690151929855
1707663731994068000,10.70606787109375,0.011939048767089844,0.0077533721923828125,0.030836239457130432
1707663732004068000,10.716068115234375,-0.010922908782958984,0.012201309204101562,-0.023124199360609055
1707663732014068000,10.72606787109375,-0.03411722183227539,-0.03566265106201172,-0.05325840413570404
1707663732024068000,10.736068115234374,0.0035238265991210938,-0.016058921813964844,0.1331224888563156
1707663732034068000,10.74606787109375,0.029027462005615234,-0.00974273681640625,0.006429079920053482
1707663732044068000,10.756068115234376,0.03312492370605469,-0.004488945007324219,0.051273029297590256
1707663732054068000,10.76606787109375,0.03783130645751953,-0.005757331848144531,0.009400956332683563
1707663732064068000,10.776068115234375,0.017343521118164062,-0.023096084594726562,0.0033863037824630737
1707663732074068000,10.78606787109375,-0.008321285247802734,-0.0036611557006835938,-0.04086313769221306
1707663732084068000,10.796068115234375,0.005421638488769531,0.033219337463378906,-0.06045813113451004
1707663732094068000,10.80606787109375,-0.025306224822998047,-0.0263214111328125,-0.01695745810866356
1707663732104068000,10.816068115234375,-0.010106563568115234,-0.016160964965820312,-0.00777754932641983
1707663732114068000,10.82606787109375,-0.01697683334350586,-0.022980690002441406,-0.07232630252838135
1707663732124068000,10.836068115234376,0.015293121337890625,0.004031181335449219,0.0910552516579628
1707663732134068000,10.84606787109375,-0.0023064613342285156,0.0015354156494140625,-0.012716498225927353
1707663732144068000,10.856068115234375,-0.01589059829711914,0.04353809356689453,0.09178484976291656
1707663732154068000,10.86606787109375,-0.039754390716552734,-0.037628173828125,-0.020407799631357193
1707663732164068000,10.876068115234375,-0.007057666778564453,-0.15831470489501953,-0.05812278762459755
1707663732174068000,10.88606787109375,0.11374425888061523,-0.20418357849121094,-0.2559551000595093
1707663732184068000,10.896068115234375,0.1939711570739746,-0.16162586212158203,0.037930574268102646
1707663732194068000,10.90606787109375,0.21848392486572266,-0.13577556610107422,-0.03666844591498375
1707663732204068000,10.916068115234374,0.31386470794677734,-0.45088768005371094,-0.0730038583278656
1707663732214068000,10.92606787109375,0.6850905418395996,-0.4956245422363281,-0.02186087891459465
1707663732224068000,10.936068115234375,1.237159252166748,-0.4504404067993164,0.07603172957897186
1707663732234068000,10.94606787109375,1.4205231666564941,-0.42124080657958984,-0.47097814083099365
1707663732244068000,10.956068115234375,0.9196367263793945,-0.2992725372314453,-0.26838240027427673
1707663732254068000,10.96606787109375,-0.04039907455444336,-0.1651020050048828,-0.29438573122024536
1707663732264068000,10.976068115234375,-0.7184109687805176,0.0029458999633789062,-0.23378977179527283
1707663732274068000,10.98606787109375,-0.46984338760375977,0.09608650207519531,-0.06708976626396179
1707663732284068000,10.996068115234374,0.2682375907897949,0.040884971618652344,0.06861088424921036
1707663732294068000,11.00606787109375,0.32866334915161133,-0.014557838439941406,0.17574438452720642
1707663732304068000,11.016068115234376,-0.16408491134643555,0.09080696105957031,0.30132004618644714
1707663732314068000,11.02606787109375,-0.4923577308654785,0.1303081512451172,-0.10503271222114563
1707663732324068000,11.036068115234375,-0.44913721084594727,0.02731609344482422,0.01453198492527008
1707663732334068000,11.04606787109375,-0.20272350311279297,0.1058053970336914,0.06982575356960297
1707663732344068000,11.056068115234375,-0.013187885284423828,0.18108463287353516,0.05492304638028145
1707663732354068000,11.06606787109375,-0.06595325469970703,0.1644582748413086,-0.09661896526813507
1707663732364068000,11.076068115234374,-0.16407442092895508,0.16211986541748047,0.14275091886520386
1707663732374068000,11.08606787109375,-0.18244504928588867,0.2716693878173828,0.22255803644657135
1707663732384068000,11.096068115234376,-0.03200244903564453,0.2532644271850586,0.18817898631095886
1707663732394068000,11.10606787109375,0.25344324111938477,0.1787738800048828,0.09511096030473709
1707663732404068000,11.116068115234375,0.35445737838745117,0.03062152862548828,0.22834593057632446
1707663732414068000,11.12606787109375,0.14862394332885742,0.02281475067138672,0.34055113792419434
1707663732424068000,11.136068115234375,-0.04456281661987305,-0.02872467041015625,0.09699670225381851
1707663732434068000,11.14606787109375,-0.037511348724365234,-0.06111907958984375,0.19829148054122925
1707663732444068000,11.156068115234374,0.12009191513061523,-0.04772186279296875,0.16903623938560486
1707663732454068000,11.16606787109375,0.3347129821777344,-0.008675575256347656,0.1745167374610901
1707663732464068000,11.176068115234376,0.3322272300720215,-0.038748741149902344,0.03621354699134827
1707663732474068000,11.18606787109375,0.2970404624938965,-0.09224414825439453,0.07250705361366272
1707663732484068000,11.196068115234375,0.2406768798828125,-0.10222721099853516,0.09101977944374084
1707663732494068000,11.20606787109375,0.31088876724243164,0.038299560546875,0.24696864187717438
1707663732504068000,11.216068115234375,0.3722267150878906,-0.15078258514404297,-0.07898874580860138
1707663732514068000,11.22606787109375,0.47176551818847656,-0.13756275177001953,0.0917481780052185
1707663732524068000,11.236068115234374,0.4190969467163086,-0.0671701431274414,0.07232356816530228
1707663732534068000,11.24606787109375,0.351686954498291,-0.15711498260498047,0.03561939299106598
1707663732544068000,11.256068115234376,0.2370285987854004,-0.21568584442138672,-0.0495125837624073
1707663732554068000,11.26606787109375,0.23534870147705078,-0.15574359893798828,0.03366371989250183
1707663732564068000,11.276068115234375,0.331815242767334,-0.16459083557128906,0.01303927693516016
1707663732574068000,11.28606787109375,0.5200810432434082,-0.19472026824951172,-0.2572464346885681
1707663732584068000,11.296068115234375,0.44072628021240234,-0.09899425506591797,-0.061705198138952255
1707663732594068000,11.30606787109375,0.2724571228027344,-0.09592151641845703,-0.191179558634758
1707663732604068000,11.316068115234375,0.18780231475830078,-0.009846687316894531,0.031054427847266197
1707663732614068000,11.32606787109375,0.2970919609069824,-0.1251688003540039,-0.12293040007352829
1707663732624068000,11.336068115234376,0.30489683151245117,-0.1997213363647461,0.057814471423625946
1707663732634068000,11.34606787109375,0.3939933776855469,-0.3072032928466797,-0.28524869680404663
1707663732644068000,11.356068115234375,0.36232948303222656,-0.1904745101928711,0.08054932951927185
1707663732654068000,11.36606787109375,0.3260622024536133,-0.26440906524658203,-0.3321642279624939
1707663732664068000,11.376068115234375,0.31386423110961914,-0.09868144989013672,0.004088975489139557
1707663732674068000,11.38606787109375,0.2900247573852539,-0.15932178497314453,-0.38733091950416565
1707663732684068000,11.396068115234375,0.19314336776733398,-0.06184673309326172,0.09075440466403961
1707663732694068000,11.40606787109375,0.27033042907714844,-0.26601600646972656,-0.37999963760375977
1707663732704068000,11.416068115234374,0.26364660263061523,-0.060108184814453125,0.11319300532341003
1707663732714068000,11.42606787109375,0.18683433532714844,-0.20176219940185547,-0.33614039421081543
1707663732724068000,11.436068115234375,0.11248540878295898,-0.044361114501953125,0.11981670558452606
1707663732734068000,11.44606787109375,0.14506053924560547,-0.23041725158691406,-0.34720033407211304
1707663732744068000,11.456068115234375,0.2394266128540039,-0.05096435546875,0.09881903231143951
1707663732754068000,11.46606787109375,0.3426542282104492,-0.21350574493408203,-0.41806599497795105
1707663732764068000,11.476068115234375,0.30057239532470703,-0.054144859313964844,0.26553407311439514
1707663732774068000,11.48606787109375,0.18027496337890625,-0.1983785629272461,-0.3291257619857788
1707663732784068000,11.496068115234374,0.16991043090820312,-0.08481693267822266,0.23251786828041077
1707663732794068000,11.50606787109375,0.1867227554321289,-0.1849498748779297,-0.3225758969783783
1707663732804068000,11.516068115234376,0.30946826934814453,-0.104736328125,0.2541739046573639
1707663732814068000,11.52606787109375,0.34654903411865234,-0.1718921661376953,-0.33415883779525757
1707663732824068000,11.536068115234375,0.31412649154663086,-0.061077117919921875,0.30046725273132324
1707663732834068000,11.54606787109375,0.256591796875,-0.06863117218017578,-0.2659637928009033
1707663732844068000,11.556068115234375,0.34082889556884766,-0.013087272644042969,0.34721839427948
1707663732854068000,11.56606787109375,0.3471851348876953,-0.06207561492919922,-0.21437372267246246
1707663732864068000,11.576068115234374,0.40128564834594727,-0.07518386840820312,0.31433573365211487
1707663732874068000,11.58606787109375,0.29499244689941406,-0.11652946472167969,-0.1912657767534256
1707663732884068000,11.596068115234376,0.276181697845459,-0.12467479705810547,0.23480090498924255
1707663732894068000,11.60606787109375,0.1988525390625,-0.05051422119140625,-0.205653578042984
1707663732904068000,11.616068115234375,0.33888721466064453,-0.10520076751708984,0.26866480708122253
1707663732914068000,11.62606787109375,0.3427724838256836,-0.048610687255859375,-0.03070111945271492
1707663732924068000,11.636068115234375,0.38837766647338867,-0.08933639526367188,0.21598176658153534
1707663732934068000,11.64606787109375,0.2543206214904785,-0.031368255615234375,-0.04450707510113716
1707663732944068000,11.656068115234374,0.21631526947021484,-0.06707000732421875,0.12558969855308533
1707663732954068000,11.66606787109375,0.20226764678955078,-0.04801750183105469,0.02215591073036194
1707663732964068000,11.676068115234376,0.22285223007202148,-0.10477542877197266,0.07973617315292358
1707663732974068000,11.68606787109375,0.16425371170043945,-0.06745338439941406,0.08815690875053406
1707663732984068000,11.696068115234375,0.1914963722229004,-0.08384990692138672,0.04119344800710678
1707663732994068000,11.70606787109375,0.1487278938293457,-0.019150733947753906,0.17237459123134613
1707663733004068000,11.716068115234375,0.11803722381591797,-0.07533073425292969,-0.0051002707332372665
1707663733014068000,11.72606787109375,0.14124107360839844,-0.055698394775390625,0.18337878584861755
1707663733024068000,11.736068115234374,0.16207504272460938,-0.12014961242675781,-0.005823943763971329
1707663733034068000,11.74606787109375,0.16246891021728516,-0.039226531982421875,0.19134551286697388
1707663733044068000,11.756068115234376,0.13711833953857422,-0.06231117248535156,-0.06448628008365631
1707663733054068000,11.76606787109375,0.15270042419433594,-0.04340076446533203,0.22283072769641876
1707663733064068000,11.776068115234375,0.14007091522216797,-0.07409858703613281,-0.0791909396648407
1707663733074068000,11.78606787109375,0.1840667724609375,-0.029951095581054688,0.21523183584213257
1707663733084068000,11.796068115234375,0.1453566551208496,-0.07314491271972656,-0.21841999888420105
1707663733094068000,11.80606787109375,0.1802840232849121,-0.049874305725097656,0.13474112749099731
1707663733104068000,11.816068115234375,0.14006614685058594,-0.1020956039428711,-0.2014995664358139
1707663733114068000,11.82606787109375,0.14410686492919922,-0.08911323547363281,0.1391301453113556
1707663733124068000,11.836068115234376,0.08896017074584961,-0.14552783966064453,-0.21222442388534546
1707663733134068000,11.84606787109375,0.18117713928222656,-0.12371349334716797,0.1729431450366974
1707663733144068000,11.856068115234375,0.138580322265625,-0.15668964385986328,-0.24607618153095245
1707663733154068000,11.86606787109375,0.12019014358520508,-0.14872360229492188,0.05768920108675957
1707663733164068000,11.876068115234375,0.002308368682861328,-0.13480758666992188,-0.271533340215683
1707663733174068000,11.88606787109375,0.04546403884887695,-0.06475067138671875,0.07181281596422195
1707663733184068000,11.896068115234375,0.07677125930786133,-0.039397239685058594,-0.2471289038658142
1707663733194068000,11.90606787109375,0.18657684326171875,0.01393890380859375,0.06896348297595978
1707663733204068000,11.916068115234374,0.05395221710205078,-0.010145187377929688,-0.20825117826461792
1707663733214068000,11.92606787109375,-0.01980733871459961,-0.00048732757568359375,0.062233392149209976
1707663733224068000,11.936068115234375,-0.10825586318969727,-0.018342018127441406,-0.23176665604114532
1707663733234068000,11.94606787109375,-0.00790548324584961,-0.03217792510986328,0.01244395598769188
1707663733244068000,11.956068115234375,0.05495882034301758,-0.004311561584472656,-0.1628372073173523
1707663733254068000,11.96606787109375,0.13815832138061523,0.05465126037597656,0.051247790455818176
1707663733264068000,11.976068115234375,0.010579109191894531,0.12253284454345703,-0.1122097298502922
1707663733274068000,11.98606787109375,0.07189178466796875,0.11461257934570312,0.07506122440099716
1707663733284068000,11.996068115234374,0.11953067779541016,0.046906471252441406,-0.042484406381845474
1707663733294068000,12.00606787109375,0.1506185531616211,0.010986328125,0.0517636314034462
1707663733304068000,12.016068115234376,0.019575119018554688,-0.016202926635742188,-0.08378489315509796
1707663733314068000,12.02606787109375,-0.010931968688964844,-0.06853008270263672,0.04053781181573868
1707663733324068000,12.036068115234375,-0.04392671585083008,-0.0021753311157226562,0.03095516562461853
1707663733334068000,12.04606787109375,0.11672210693359375,0.05337238311767578,0.064130499958992
