time,seconds_elapsed,z,y,x
1707663721334068000,0.04606787109375,8.220098495483398,5.318180561065674,-0.5633212924003601
1707663721344068000,0.056068115234375,7.853633880615234,5.86749267578125,0.2517106235027313
1707663721354068000,0.06606787109375,7.659762859344482,6.082468509674072,0.7085245251655579
1707663721364068000,0.076068115234375,7.706077575683594,6.025335311889648,0.6943254470825195
1707663721374068000,0.08606787109375,7.974027156829834,5.690283298492432,0.4538201093673706
1707663721384068000,0.096068115234375,8.268842697143555,5.261905193328857,0.3301254212856293
1707663721394068000,0.10606787109375,8.453971862792969,4.965971946716309,0.19969062507152557
1707663721404068000,0.116068115234375,8.59851360321045,4.714209079742432,0.11040462553501129
1707663721414068000,0.12606787109375,8.722174644470215,4.482307434082031,0.05446846783161163
1707663721424068000,0.136068115234375,8.831575393676758,4.263059616088867,0.0018579392926767468
1707663721434068000,0.14606787109375,8.929436683654785,4.0535807609558105,-0.0635593831539154
1707663721444068000,0.156068115234375,9.002046585083008,3.8868534564971924,-0.1609836220741272
1707663721454068000,0.16606787109375,9.045408248901367,3.777575969696045,-0.2844370901584625
1707663721464068000,0.176068115234375,9.064227104187012,3.7184579372406006,-0.4280777871608734
1707663721474068000,0.18606787109375,9.062052726745605,3.7052550315856934,-0.5662829875946045
1707663721484068000,0.196068115234375,9.041852951049805,3.7342050075531006,-0.6862994432449341
1707663721494068000,0.20606787109375,9.009093284606934,3.7911269664764404,-0.796235203742981
1707663721504068000,0.216068115234375,8.961301803588867,3.879636526107788,-0.9021517038345337
1707663721514068000,0.22606787109375,8.898632049560547,3.9858083724975586,-1.0478897094726562
1707663721524068000,0.236068115234375,8.823667526245117,4.10693883895874,-1.2026318311691284
1707663721534068000,0.24606787109375,8.718308448791504,4.278467178344727,-1.3624241352081299
1707663721544068000,0.256068115234375,8.616305351257324,4.453936576843262,-1.4464157819747925
1707663721554068000,0.26606787109375,8.528312683105469,4.618654727935791,-1.4513081312179565
1707663721564068000,0.276068115234375,8.45334243774414,4.756534576416016,-1.4445651769638062
1707663721574068000,0.28606787109375,8.380813598632812,4.87540864944458,-1.4706255197525024
1707663721584068000,0.296068115234375,8.301798820495605,4.989326477050781,-1.53529691696167
1707663721594068000,0.30606787109375,8.219104766845703,5.102919101715088,-1.6052755117416382
1707663721604068000,0.316068115234375,8.135686874389648,5.211784362792969,-1.6787800788879395
1707663721614068000,0.32606787109375,8.051664352416992,5.3179521560668945,-1.7494235038757324
1707663721624068000,0.336068115234375,7.969108581542969,5.418222427368164,-1.8183969259262085
1707663721634068000,0.34606787109375,7.88115119934082,5.519771099090576,-1.8947198390960693
1707663721644068000,0.356068115234375,7.782678604125977,5.626997947692871,-1.9842337369918823
1707663721654068000,0.36606787109375,7.683794021606445,5.732433795928955,-2.066131830215454
1707663721664068000,0.376068115234375,7.594479084014893,5.830790042877197,-2.1204137802124023
1707663721674068000,0.38606787109375,7.520076274871826,5.919488906860352,-2.139740467071533
1707663721684068000,0.396068115234375,7.464869976043701,5.988387107849121,-2.1413393020629883
1707663721694068000,0.40606787109375,7.420173645019531,6.053795337677002,-2.112575054168701
1707663721704068000,0.416068115234375,7.384633541107178,6.112133502960205,-2.0686678886413574
1707663721714068000,0.42606787109375,7.349054336547852,6.170804977416992,-2.0206310749053955
1707663721724068000,0.436068115234375,7.305096626281738,6.239062786102295,-1.9697846174240112
1707663721734068000,0.44606787109375,7.245484352111816,6.321634292602539,-1.9262073040008545
1707663721744068000,0.456068115234375,7.172503471374512,6.41239070892334,-1.8991637229919434
1707663721754068000,0.46606787109375,7.087478160858154,6.501683712005615,-1.9147217273712158
1707663721764068000,0.476068115234375,6.9738922119140625,6.597775459289551,-2.0011444091796875
1707663721774068000,0.48606787109375,6.827369213104248,6.707556247711182,-2.1368467807769775
1707663721784068000,0.496068115234375,6.660915851593018,6.832787036895752,-2.2617673873901367
1707663721794068000,0.50606787109375,6.491241455078125,6.961268424987793,-2.361124277114868
1707663721804068000,0.516068115234375,6.320799350738525,7.094274520874023,-2.426758050918579
1707663721814068000,0.52606787109375,6.1513776779174805,7.228072166442871,-2.4669601917266846
1707663721824068000,0.536068115234375,5.977877140045166,7.363781929016113,-2.4920055866241455
1707663721834068000,0.54606787109375,5.803145408630371,7.500707149505615,-2.4966535568237305
1707663721844068000,0.556068115234375,5.635872840881348,7.632875919342041,-2.4792227745056152
1707663721854068000,0.56606787109375,5.476768493652344,7.760423183441162,-2.439513921737671
1707663721864068000,0.576068115234375,5.329708576202393,7.886560916900635,-2.3593945503234863
1707663721874068000,0.58606787109375,5.205038070678711,7.995158672332764,-2.27055287361145
1707663721884068000,0.596068115234375,5.1016387939453125,8.077041625976562,-2.2147371768951416
1707663721894068000,0.60606787109375,5.007080554962158,8.136433601379395,-2.2131388187408447
1707663721904068000,0.616068115234375,4.913933753967285,8.184918403625488,-2.242934465408325
1707663721914068000,0.62606787109375,4.821211338043213,8.225972175598145,-2.2934019565582275
1707663721924068000,0.636068115234375,4.722855091094971,8.267072677612305,-2.3495841026306152
1707663721934068000,0.64606787109375,4.622620582580566,8.30999755859375,-2.397017240524292
1707663721944068000,0.656068115234375,4.520287990570068,8.361627578735352,-2.4125819206237793
1707663721954068000,0.66606787109375,4.41425895690918,8.4232177734375,-2.3946001529693604
1707663721964068000,0.676068115234375,4.301018714904785,8.49023723602295,-2.3637895584106445
1707663721974068000,0.68606787109375,4.179704666137695,8.558998107910156,-2.3332409858703613
1707663721984068000,0.696068115234375,4.037778377532959,8.631326675415039,-2.316662311553955
1707663721994068000,0.70606787109375,3.875343084335327,8.707837104797363,-2.3077430725097656
1707663722004068000,0.716068115234375,3.6986606121063232,8.786970138549805,-2.2977099418640137
1707663722014068000,0.72606787109375,3.5144968032836914,8.865541458129883,-2.2849228382110596
1707663722024068000,0.736068115234375,3.3284547328948975,8.942776679992676,-2.26241135597229
1707663722034068000,0.74606787109375,3.1495485305786133,9.017117500305176,-2.223132371902466
1707663722044068000,0.756068115234375,2.9945194721221924,9.081785202026367,-2.173572301864624
1707663722054068000,0.76606787109375,2.8656997680664062,9.133726119995117,-2.1291306018829346
1707663722064068000,0.776068115234375,2.751575469970703,9.177906036376953,-2.089322328567505
1707663722074068000,0.78606787109375,2.6421446800231934,9.218145370483398,-2.0531134605407715
1707663722084068000,0.796068115234375,2.53310227394104,9.256295204162598,-2.0186069011688232
1707663722094068000,0.80606787109375,2.434840679168701,9.291057586669922,-1.9794429540634155
1707663722104068000,0.816068115234375,2.355396032333374,9.318289756774902,-1.947298526763916
1707663722114068000,0.82606787109375,2.3101913928985596,9.333441734313965,-1.9287992715835571
1707663722124068000,0.836068115234375,2.2907047271728516,9.335715293884277,-1.9409946203231812
1707663722134068000,0.84606787109375,2.2897887229919434,9.328692436218262,-1.9755332469940186
1707663722144068000,0.856068115234375,2.3186869621276855,9.311545372009277,-2.0221781730651855
1707663722154068000,0.86606787109375,2.3816721439361572,9.285600662231445,-2.0677640438079834
1707663722164068000,0.876068115234375,2.472379684448242,9.25540542602539,-2.0964720249176025
1707663722174068000,0.88606787109375,2.581799030303955,9.228241920471191,-2.084287643432617
1707663722184068000,0.896068115234375,2.689850330352783,9.202339172363281,-2.0620477199554443
1707663722194068000,0.90606787109375,2.798543930053711,9.167255401611328,-2.073636293411255
1707663722204068000,0.916068115234375,2.8955960273742676,9.127276420593262,-2.1163041591644287
1707663722214068000,0.92606787109375,2.972820281982422,9.090691566467285,-2.166114568710327
1707663722224068000,0.936068115234375,3.033517360687256,9.060006141662598,-2.210078239440918
1707663722234068000,0.94606787109375,3.0834567546844482,9.037031173706055,-2.234895706176758
1707663722244068000,0.956068115234375,3.142669916152954,9.01795768737793,-2.2294514179229736
1707663722254068000,0.96606787109375,3.2083351612091064,9.001860618591309,-2.2007901668548584
1707663722264068000,0.976068115234375,3.2690606117248535,8.99044418334961,-2.1576735973358154
1707663722274068000,0.98606787109375,3.3147084712982178,8.987117767333984,-2.1011462211608887
1707663722284068000,0.996068115234375,3.3485267162323,8.990425109863281,-2.0322465896606445
1707663722294068000,1.00606787109375,3.3792061805725098,8.995755195617676,-1.956465482711792
1707663722304068000,1.016068115234375,3.4061477184295654,9.003847122192383,-1.8706358671188354
1707663722314068000,1.02606787109375,3.4322733879089355,9.013885498046875,-1.7719370126724243
1707663722324068000,1.036068115234375,3.4491682052612305,9.028364181518555,-1.6620020866394043
1707663722334068000,1.04606787109375,3.4489479064941406,9.050305366516113,-1.5385457277297974
1707663722344068000,1.056068115234375,3.431680917739868,9.078628540039062,-1.4044464826583862
1707663722354068000,1.06606787109375,3.3930230140686035,9.111703872680664,-1.2785248756408691
1707663722364068000,1.076068115234375,3.339717149734497,9.145576477050781,-1.1726529598236084
1707663722374068000,1.08606787109375,3.283620834350586,9.17618465423584,-1.0889605283737183
1707663722384068000,1.096068115234375,3.231271743774414,9.202136039733887,-1.0246738195419312
1707663722394068000,1.10606787109375,3.187455654144287,9.222582817077637,-0.9769735932350159
1707663722404068000,1.116068115234375,3.150111436843872,9.238621711730957,-0.9460813999176025
1707663722414068000,1.12606787109375,3.1256749629974365,9.247247695922852,-0.9428528547286987
1707663722424068000,1.136068115234375,3.1156435012817383,9.248128890991211,-0.9670905470848083
1707663722434068000,1.14606787109375,3.116410732269287,9.243385314941406,-1.009057641029358
1707663722444068000,1.156068115234375,3.130070686340332,9.23340129852295,-1.0570447444915771
1707663722454068000,1.16606787109375,3.1577141284942627,9.218994140625,-1.0997167825698853
1707663722464068000,1.176068115234375,3.202854633331299,9.199237823486328,-1.1340827941894531
1707663722474068000,1.18606787109375,3.2618749141693115,9.17543888092041,-1.1583994626998901
1707663722484068000,1.196068115234375,3.329798698425293,9.150334358215332,-1.1637046337127686
1707663722494068000,1.20606787109375,3.399430274963379,9.126861572265625,-1.1465821266174316
1707663722504068000,1.216068115234375,3.4653189182281494,9.106614112854004,-1.1097458600997925
1707663722514068000,1.22606787109375,3.51969838142395,9.092155456542969,-1.0558542013168335
1707663722524068000,1.236068115234375,3.558485269546509,9.084299087524414,-0.9915062189102173
1707663722534068000,1.24606787109375,3.578960657119751,9.08317756652832,-0.9259149432182312
1707663722544068000,1.256068115234375,3.5836260318756104,9.08757495880127,-0.8625555634498596
1707663722554068000,1.26606787109375,3.5831313133239746,9.093399047851562,-0.8010289669036865
1707663722564068000,1.276068115234375,3.5866150856018066,9.097099304199219,-0.7412083745002747
1707663722574068000,1.28606787109375,3.5968475341796875,9.09709644317627,-0.6898683905601501
1707663722584068000,1.296068115234375,3.607849359512329,9.095640182495117,-0.6504946947097778
1707663722594068000,1.30606787109375,3.6145811080932617,9.094894409179688,-0.6229633092880249
1707663722604068000,1.316068115234375,3.620408773422241,9.09363842010498,-0.6072690486907959
1707663722614068000,1.32606787109375,3.624528646469116,9.092551231384277,-0.5989141464233398
1707663722624068000,1.336068115234375,3.6242573261260986,9.093463897705078,-0.5865619778633118
1707663722634068000,1.34606787109375,3.62107253074646,9.09638786315918,-0.560307502746582
1707663722644068000,1.356068115234375,3.6192691326141357,9.09941577911377,-0.5214400887489319
1707663722654068000,1.36606787109375,3.6171605587005615,9.102682113647461,-0.477181077003479
1707663722664068000,1.376068115234375,3.6007750034332275,9.111538887023926,-0.4297419786453247
1707663722674068000,1.38606787109375,3.5663399696350098,9.126995086669922,-0.38674822449684143
1707663722684068000,1.396068115234375,3.522893190383911,9.145151138305664,-0.3546997904777527
1707663722694068000,1.40606787109375,3.476675510406494,9.163740158081055,-0.3301478326320648
1707663722704068000,1.416068115234375,3.444659948348999,9.176533699035645,-0.3097042739391327
1707663722714068000,1.42606787109375,3.434230089187622,9.181293487548828,-0.28334900736808777
1707663722724068000,1.436068115234375,3.427154302597046,9.184593200683594,-0.26125675439834595
1707663722734068000,1.44606787109375,3.4119789600372314,9.190540313720703,-0.25052255392074585
1707663722744068000,1.456068115234375,3.3977794647216797,9.196035385131836,-0.24169035255908966
1707663722754068000,1.46606787109375,3.3820576667785645,9.202098846435547,-0.2311948984861374
1707663722764068000,1.476068115234375,3.366154193878174,9.208185195922852,-0.22072458267211914
1707663722774068000,1.48606787109375,3.3540873527526855,9.212748527526855,-0.21389156579971313
1707663722784068000,1.496068115234375,3.341583251953125,9.217302322387695,-0.213436096906662
1707663722794068000,1.50606787109375,3.3243343830108643,9.223305702209473,-0.223201185464859
1707663722804068000,1.516068115234375,3.312931537628174,9.227178573608398,-0.23248107731342316
1707663722814068000,1.52606787109375,3.305431842803955,9.229854583740234,-0.23297688364982605
1707663722824068000,1.536068115234375,3.297672986984253,9.232671737670898,-0.23132410645484924
1707663722834068000,1.54606787109375,3.2897894382476807,9.235382080078125,-0.23536288738250732
1707663722844068000,1.556068115234375,3.2886884212493896,9.235594749450684,-0.24227897822856903
1707663722854068000,1.56606787109375,3.2948875427246094,9.233185768127441,-0.24976284801959991
1707663722864068000,1.576068115234375,3.308286666870117,9.228111267089844,-0.25997450947761536
1707663722874068000,1.58606787109375,3.3295605182647705,9.220081329345703,-0.27298927307128906
1707663722884068000,1.596068115234375,3.3606109619140625,9.208433151245117,-0.28536444902420044
1707663722894068000,1.60606787109375,3.3950607776641846,9.195597648620605,-0.2914429008960724
1707663722904068000,1.616068115234375,3.4225778579711914,9.185523986816406,-0.2872011661529541
1707663722914068000,1.62606787109375,3.4484236240386963,9.175870895385742,-0.28662192821502686
1707663722924068000,1.636068115234375,3.4697628021240234,9.167397499084473,-0.2999570369720459
1707663722934068000,1.64606787109375,3.475874662399292,9.164895057678223,-0.3056005835533142
1707663722944068000,1.656068115234375,3.474592685699463,9.166213035583496,-0.2795040011405945
1707663722954068000,1.66606787109375,3.4762086868286133,9.166563987731934,-0.2459229826927185
1707663722964068000,1.676068115234375,3.484131336212158,9.164346694946289,-0.21442092955112457
1707663722974068000,1.68606787109375,3.4872419834136963,9.16380500793457,-0.1849554032087326
1707663722984068000,1.696068115234375,3.4909775257110596,9.162887573242188,-0.1579018235206604
1707663722994068000,1.70606787109375,3.493612289428711,9.162227630615234,-0.13654321432113647
1707663723004068000,1.716068115234375,3.4968719482421875,9.161212921142578,-0.12023037672042847
1707663723014068000,1.72606787109375,3.504380702972412,9.158510208129883,-0.10665383189916611
1707663723024068000,1.736068115234375,3.5152742862701416,9.154462814331055,-0.09508110582828522
1707663723034068000,1.74606787109375,3.5283913612365723,9.149504661560059,-0.08595723658800125
1707663723044068000,1.756068115234375,3.541670083999634,9.14442253112793,-0.080634705722332
1707663723054068000,1.76606787109375,3.55336856842041,9.139893531799316,-0.07941289991140366
1707663723064068000,1.776068115234375,3.5633130073547363,9.136041641235352,-0.07709509134292603
1707663723074068000,1.78606787109375,3.573234796524048,9.13222885131836,-0.06918631494045258
1707663723084068000,1.796068115234375,3.579826593399048,9.129755973815918,-0.052854131907224655
1707663723094068000,1.80606787109375,3.5803720951080322,9.129645347595215,-0.029783029109239578
1707663723104068000,1.816068115234375,3.580801248550415,9.129525184631348,-0.0007323208265006542
1707663723114068000,1.82606787109375,3.5828983783721924,9.128649711608887,0.031376153230667114
1707663723124068000,1.836068115234375,3.5860512256622314,9.127269744873047,0.05978235602378845
1707663723134068000,1.84606787109375,3.5901756286621094,9.12546443939209,0.08315642178058624
1707663723144068000,1.856068115234375,3.594425916671753,9.123603820800781,0.10164086520671844
1707663723154068000,1.86606787109375,3.596492290496826,9.122639656066895,0.11436770111322403
1707663723164068000,1.876068115234375,3.598189115524292,9.121843338012695,0.12405417859554291
1707663723174068000,1.88606787109375,3.603468656539917,9.119636535644531,0.13270004093647003
1707663723184068000,1.896068115234375,3.611046314239502,9.116518020629883,0.1408253312110901
1707663723194068000,1.90606787109375,3.6203062534332275,9.1127347946167,0.1477561593055725
1707663723204068000,1.916068115234375,3.632695198059082,9.107732772827148,0.15204934775829315
1707663723214068000,1.92606787109375,3.6488428115844727,9.101238250732422,0.1542394757270813
1707663723224068000,1.936068115234375,3.6666908264160156,9.094025611877441,0.15636684000492096
1707663723234068000,1.94606787109375,3.6807143688201904,9.088297843933105,0.15993280708789825
1707663723244068000,1.956068115234375,3.692317247390747,9.08350658416748,0.16457726061344147
1707663723254068000,1.96606787109375,3.7016971111297607,9.07956600189209,0.1712190955877304
1707663723264068000,1.976068115234375,3.711838722229004,9.075315475463867,0.17684759199619293
1707663723274068000,1.98606787109375,3.723205804824829,9.070613861083984,0.179142028093338
1707663723284068000,1.996068115234375,3.735337495803833,9.06566047668457,0.17736922204494476
1707663723294068000,2.00606787109375,3.745865821838379,9.061481475830078,0.16861656308174133
1707663723304068000,2.016068115234375,3.755255699157715,9.057829856872559,0.15544910728931427
1707663723314068000,2.02606787109375,3.7628910541534424,9.054902076721191,0.14067164063453674
1707663723324068000,2.036068115234375,3.76969051361084,9.052309036254883,0.12452446669340134
1707663723334068000,2.04606787109375,3.7802796363830566,9.048090934753418,0.10916946083307266
1707663723344068000,2.056068115234375,3.7964162826538086,9.041485786437988,0.09567742794752121
1707663723354068000,2.06606787109375,3.8154678344726562,9.033596992492676,0.0819842740893364
1707663723364068000,2.076068115234375,3.8355605602264404,9.02520751953125,0.06699230521917343
1707663723374068000,2.08606787109375,3.8592424392700195,9.015202522277832,0.05261320248246193
1707663723384068000,2.096068115234375,3.8867266178131104,9.00345230102539,0.03986824303865433
1707663723394068000,2.10606787109375,3.915980100631714,8.990819931030273,0.02560139261186123
1707663723404068000,2.116068115234375,3.9467110633850098,8.977401733398438,0.010258520022034645
1707663723414068000,2.12606787109375,3.977294921875,8.963898658752441,-0.005459238775074482
1707663723424068000,2.136068115234375,4.004653453826904,8.951683044433594,-0.0226938184350729
1707663723434068000,2.14606787109375,4.02882194519043,8.940766334533691,-0.041166990995407104
1707663723444068000,2.156068115234375,4.04842472076416,8.93179988861084,-0.05996863543987274
1707663723454068000,2.16606787109375,4.063429832458496,8.924844741821289,-0.07780329883098602
1707663723464068000,2.176068115234375,4.075567722320557,8.91915225982666,-0.09414760768413544
1707663723474068000,2.18606787109375,4.087614059448242,8.913469314575195,-0.10897745192050934
1707663723484068000,2.196068115234375,4.099926471710205,8.907658576965332,-0.12091878056526184
1707663723494068000,2.20606787109375,4.111908912658691,8.902000427246094,-0.13025805354118347
1707663723504068000,2.216068115234375,4.124793529510498,8.895936965942383,-0.1369737982749939
1707663723514068000,2.22606787109375,4.138325214385986,8.889592170715332,-0.14071372151374817
1707663723524068000,2.236068115234375,4.154038906097412,8.882237434387207,-0.14216408133506775
1707663723534068000,2.24606787109375,4.171951770782471,8.8738431930542,-0.14184923470020294
1707663723544068000,2.256068115234375,4.191018581390381,8.864862442016602,-0.1412627100944519
1707663723554068000,2.26606787109375,4.212228775024414,8.854814529418945,-0.14066357910633087
1707663723564068000,2.276068115234375,4.232331275939941,8.845247268676758,-0.13914217054843903
1707663723574068000,2.28606787109375,4.253081798553467,8.835285186767578,-0.13934557139873505
1707663723584068000,2.296068115234375,4.281454563140869,8.821565628051758,-0.13967815041542053
1707663723594068000,2.30606787109375,4.311007022857666,8.807154655456543,-0.14016030728816986
1707663723604068000,2.316068115234375,4.335891246795654,8.79491138458252,-0.14128871262073517
1707663723614068000,2.32606787109375,4.342536926269531,8.791627883911133,-0.14158466458320618
1707663723624068000,2.336068115234375,4.3427934646606445,8.791508674621582,-0.14108195900917053
1707663723634068000,2.34606787109375,4.3401641845703125,8.792829513549805,-0.1396532654762268
1707663723644068000,2.356068115234375,4.337286949157715,8.794286727905273,-0.13729508221149445
1707663723654068000,2.36606787109375,4.332522392272949,8.79668140411377,-0.13426296412944794
1707663723664068000,2.376068115234375,4.325723171234131,8.800036430358887,-0.133596733212471
1707663723674068000,2.38606787109375,4.322939395904541,8.801435470581055,-0.13156481087207794
1707663723684068000,2.396068115234375,4.314042568206787,8.80582046508789,-0.13014531135559082
1707663723694068000,2.40606787109375,4.3017497062683105,8.8118314743042,-0.13022127747535706
1707663723704068000,2.416068115234375,4.287146091461182,8.819008827209473,-0.1258714348077774
1707663723714068000,2.42606787109375,4.270623683929443,8.827054977416992,-0.12356844544410706
1707663723724068000,2.436068115234375,4.253993511199951,8.835125923156738,-0.1203300803899765
1707663723734068000,2.44606787109375,4.27017068862915,8.82734489440918,-0.11834479123353958
1707663723744068000,2.456068115234375,4.294200420379639,8.815685272216797,-0.11801974475383759
1707663723754068000,2.46606787109375,4.311697483062744,8.807146072387695,-0.11761777102947235
1707663723764068000,2.476068115234375,4.3167033195495605,8.804695129394531,-0.11746449023485184
1707663723774068000,2.48606787109375,4.310735702514648,8.80763053894043,-0.11663166433572769
1707663723784068000,2.496068115234375,4.303249835968018,8.811304092407227,-0.11553779244422913
1707663723794068000,2.50606787109375,4.3024115562438965,8.81171989440918,-0.11500783264636993
1707663723804068000,2.516068115234375,4.308182239532471,8.808904647827148,-0.1146710142493248
1707663723814068000,2.52606787109375,4.313833236694336,8.806142807006836,-0.11437661945819855
1707663723824068000,2.536068115234375,4.314552307128906,8.805797576904297,-0.11387543380260468
1707663723834068000,2.54606787109375,4.311164379119873,8.807463645935059,-0.11331835389137268
1707663723844068000,2.556068115234375,4.308169364929199,8.80893611907959,-0.11273462325334549
1707663723854068000,2.56606787109375,4.308925151824951,8.808571815490723,-0.1123071238398552
1707663723864068000,2.576068115234375,4.312009334564209,8.807066917419434,-0.11195714771747589
1707663723874068000,2.58606787109375,4.314100742340088,8.806045532226562,-0.11174289882183075
1707663723884068000,2.596068115234375,4.316098690032959,8.805084228515625,-0.1103135198354721
1707663723894068000,2.60606787109375,4.313612937927246,8.806319236755371,-0.10895036160945892
1707663723904068000,2.616068115234375,4.30949068069458,8.808356285095215,-0.10742254555225372
1707663723914068000,2.62606787109375,4.307733535766602,8.809229850769043,-0.10622124373912811
1707663723924068000,2.636068115234375,4.3092851638793945,8.808483123779297,-0.1052170842885971
1707663723934068000,2.64606787109375,4.311373710632324,8.807473182678223,-0.10413819551467896
1707663723944068000,2.656068115234375,4.31134557723999,8.807499885559082,-0.10311825573444366
1707663723954068000,2.66606787109375,4.309316158294678,8.808504104614258,-0.10213416069746017
1707663723964068000,2.676068115234375,4.307312488555908,8.80949878692627,-0.10095148533582687
1707663723974068000,2.68606787109375,4.30724573135376,8.809541702270508,-0.10004021227359772
1707663723984068000,2.696068115234375,4.308233261108398,8.809067726135254,-0.09920106828212738
1707663723994068000,2.70606787109375,4.308774948120117,8.808815002441406,-0.0980815663933754
1707663724004068000,2.716068115234375,4.307995796203613,8.809207916259766,-0.09710991382598877
1707663724014068000,2.72606787109375,4.3066864013671875,8.809856414794922,-0.09623628109693527
1707663724024068000,2.736068115234375,4.305903434753418,8.810248374938965,-0.09537991881370544
1707663724034068000,2.74606787109375,4.3059282302856445,8.810246467590332,-0.09455610066652298
1707663724044068000,2.756068115234375,4.306090831756592,8.81017780303955,-0.09349165856838226
1707663724054068000,2.76606787109375,4.305627346038818,8.810413360595703,-0.09264267981052399
1707663724064068000,2.776068115234375,4.304475784301758,8.810985565185547,-0.09172762930393219
1707663724074068000,2.78606787109375,4.3032355308532715,8.811601638793945,-0.09082089364528656
1707663724084068000,2.796068115234375,4.30265998840332,8.811891555786133,-0.08993154764175415
1707663724094068000,2.80606787109375,4.302488327026367,8.811982154846191,-0.08918636292219162
1707663724104068000,2.816068115234375,4.302087306976318,8.812187194824219,-0.0883273035287857
1707663724114068000,2.82606787109375,4.301226615905762,8.812615394592285,-0.08737896382808685
1707663724124068000,2.836068115234375,4.30037784576416,8.81303882598877,-0.08659880608320236
1707663724134068000,2.84606787109375,4.299230575561523,8.813604354858398,-0.08587443828582764
1707663724144068000,2.856068115234375,4.298829555511475,8.813807487487793,-0.0850771814584732
1707663724154068000,2.86606787109375,4.298245429992676,8.814101219177246,-0.08423107117414474
1707663724164068000,2.876068115234375,4.29757833480835,8.814434051513672,-0.08344782888889313
1707663724174068000,2.88606787109375,4.2968597412109375,8.814788818359375,-0.08284873515367508
1707663724184068000,2.896068115234375,4.296058177947998,8.815189361572266,-0.08192674070596695
1707663724194068000,2.90606787109375,4.295401573181152,8.81551742553711,-0.08113836497068405
1707663724204068000,2.916068115234375,4.295137405395508,8.815652847290039,-0.08032462745904922
1707663724214068000,2.92606787109375,4.294593334197998,8.815923690795898,-0.07965236157178879
1707663724224068000,2.936068115234375,4.2940216064453125,8.816208839416504,-0.07887507975101471
1707663724234068000,2.94606787109375,4.293460369110107,8.816489219665527,-0.0782281830906868
1707663724244068000,2.956068115234375,4.292866230010986,8.816784858703613,-0.07739420235157013
1707663724254068000,2.96606787109375,4.292546272277832,8.816947937011719,-0.07668156176805496
1707663724264068000,2.976068115234375,4.292109489440918,8.817166328430176,-0.07582908868789673
1707663724274068000,2.98606787109375,4.292032241821289,8.81721019744873,-0.07511349767446518
1707663724284068000,2.996068115234375,4.291651248931885,8.817403793334961,-0.07428155839443207
1707663724294068000,3.00606787109375,4.291225433349609,8.81761646270752,-0.07356535643339157
1707663724304068000,3.016068115234375,4.290824890136719,8.817817687988281,-0.07276268303394318
1707663724314068000,3.02606787109375,4.290559768676758,8.817953109741211,-0.07198312878608704
1707663724324068000,3.036068115234375,4.290268421173096,8.81810188293457,-0.0712856724858284
1707663724334068000,3.04606787109375,4.289908409118652,8.818279266357422,-0.07085364311933517
1707663724344068000,3.056068115234375,4.28951358795166,8.818477630615234,-0.0700899064540863
1707663724354068000,3.06606787109375,4.2892537117004395,8.818608283996582,-0.06947500258684158
1707663724364068000,3.076068115234375,4.2889723777771,8.818750381469727,-0.06885846704244614
1707663724374068000,3.08606787109375,4.288518905639648,8.818975448608398,-0.0682457908987999
1707663724384068000,3.096068115234375,4.288145065307617,8.81916332244873,-0.06750699877738953
1707663724394068000,3.10606787109375,4.287703990936279,8.819380760192871,-0.0671800822019577
1707663724404068000,3.116068115234375,4.287201881408691,8.819628715515137,-0.06664250791072845
1707663724414068000,3.12606787109375,4.286746025085449,8.819854736328125,-0.0660027340054512
1707663724424068000,3.136068115234375,4.2861647605896,8.820143699645996,-0.06530135124921799
1707663724434068000,3.14606787109375,4.285792827606201,8.820326805114746,-0.06482064723968506
1707663724444068000,3.156068115234375,4.285355567932129,8.820542335510254,-0.06439767777919769
1707663724454068000,3.16606787109375,4.28477668762207,8.820826530456543,-0.06397411972284317
1707663724464068000,3.176068115234375,4.284387111663818,8.821019172668457,-0.06342199444770813
1707663724474068000,3.18606787109375,4.284112930297852,8.821155548095703,-0.06318352371454239
1707663724484068000,3.196068115234375,4.283664703369141,8.821375846862793,-0.06259571760892868
1707663724494068000,3.20606787109375,4.283240795135498,8.821585655212402,-0.062261465936899185
1707663724504068000,3.216068115234375,4.282692909240723,8.821852684020996,-0.061912618577480316
1707663724514068000,3.22606787109375,4.282349109649658,8.822022438049316,-0.061559464782476425
1707663724524068000,3.236068115234375,4.281986236572266,8.822200775146484,-0.06119362264871597
1707663724534068000,3.24606787109375,4.281735897064209,8.822325706481934,-0.0607580803334713
1707663724544068000,3.256068115234375,4.281522750854492,8.822430610656738,-0.0604664571583271
1707663724554068000,3.26606787109375,4.2813310623168945,8.822526931762695,-0.06015520915389061
1707663724564068000,3.276068115234375,4.28115701675415,8.822612762451172,-0.05979983136057854
1707663724574068000,3.28606787109375,4.280930042266846,8.822725296020508,-0.05941960588097572
1707663724584068000,3.296068115234375,4.28079080581665,8.822796821594238,-0.058983251452445984
1707663724594068000,3.30606787109375,4.2806077003479,8.82288932800293,-0.05861309915781021
1707663724604068000,3.316068115234375,4.280430316925049,8.822975158691406,-0.058363452553749084
1707663724614068000,3.32606787109375,4.280151844024658,8.823112487792969,-0.058048296719789505
1707663724624068000,3.336068115234375,4.279963493347168,8.823205947875977,-0.0577818937599659
1707663724634068000,3.34606787109375,4.279815196990967,8.823280334472656,-0.05742926523089409
1707663724644068000,3.356068115234375,4.279847621917725,8.823266983032227,-0.05703507363796234
1707663724654068000,3.36606787109375,4.2797746658325195,8.823304176330566,-0.056731004267930984
1707663724664068000,3.376068115234375,4.279717922210693,8.823332786560059,-0.05654721334576607
1707663724674068000,3.38606787109375,4.279702186584473,8.823343276977539,-0.05608189105987549
1707663724684068000,3.396068115234375,4.279548645019531,8.823419570922852,-0.05594711750745773
1707663724694068000,3.40606787109375,4.279423713684082,8.823482513427734,-0.05549538880586624
1707663724704068000,3.416068115234375,4.279265403747559,8.823562622070312,-0.05496558919548988
1707663724714068000,3.42606787109375,4.2792582511901855,8.823569297790527,-0.054505713284015656
1707663724724068000,3.436068115234375,4.279058456420898,8.823667526245117,-0.054147347807884216
1707663724734068000,3.44606787109375,4.278738975524902,8.82382583618164,-0.05365455150604248
1707663724744068000,3.456068115234375,4.278532981872559,8.823927879333496,-0.05329558253288269
1707663724754068000,3.46606787109375,4.278472423553467,8.823959350585938,-0.052956853061914444
1707663724764068000,3.476068115234375,4.278104305267334,8.824139595031738,-0.05258975550532341
1707663724774068000,3.48606787109375,4.277701377868652,8.824337005615234,-0.05231444537639618
1707663724784068000,3.496068115234375,4.277543544769287,8.824416160583496,-0.05184294283390045
1707663724794068000,3.50606787109375,4.277383804321289,8.824496269226074,-0.05145784467458725
1707663724804068000,3.516068115234375,4.277255058288574,8.824559211730957,-0.05119334161281586
1707663724814068000,3.52606787109375,4.276873588562012,8.824747085571289,-0.05094921588897705
1707663724824068000,3.536068115234375,4.276593208312988,8.824883460998535,-0.050781842321157455
1707663724834068000,3.54606787109375,4.276274681091309,8.82503890991211,-0.0505882166326046
1707663724844068000,3.556068115234375,4.276062488555908,8.825142860412598,-0.05025262013077736
1707663724854068000,3.56606787109375,4.275970458984375,8.825190544128418,-0.04972226917743683
1707663724864068000,3.576068115234375,4.275751113891602,8.825297355651855,-0.04955946281552315
1707663724874068000,3.58606787109375,4.275407314300537,8.82546615600586,-0.04935132712125778
1707663724884068000,3.596068115234375,4.275243759155273,8.82554817199707,-0.04897218942642212
1707663724894068000,3.60606787109375,4.275015354156494,8.825658798217773,-0.048827581107616425
1707663724904068000,3.616068115234375,4.274860382080078,8.825735092163086,-0.04852379113435745
1707663724914068000,3.62606787109375,4.2745866775512695,8.825867652893066,-0.04838532581925392
1707663724924068000,3.636068115234375,4.2745490074157715,8.825887680053711,-0.04807942733168602
1707663724934068000,3.64606787109375,4.274539947509766,8.825892448425293,-0.04803045094013214
1707663724944068000,3.656068115234375,4.274408340454102,8.825956344604492,-0.04807163029909134
1707663724954068000,3.66606787109375,4.274195671081543,8.82606029510498,-0.04804942384362221
1707663724964068000,3.676068115234375,4.274082660675049,8.826114654541016,-0.04798747971653938
1707663724974068000,3.68606787109375,4.273947715759277,8.826181411743164,-0.04770953580737114
1707663724984068000,3.696068115234375,4.273902893066406,8.826202392578125,-0.047730084508657455
1707663724994068000,3.70606787109375,4.2737579345703125,8.826273918151855,-0.04776422306895256
1707663725004068000,3.716068115234375,4.273574352264404,8.826362609863281,-0.047612614929676056
1707663725014068000,3.72606787109375,4.27354621887207,8.826376914978027,-0.047608811408281326
1707663725024068000,3.736068115234375,4.273520469665527,8.82638931274414,-0.04764195531606674
1707663725034068000,3.74606787109375,4.273306369781494,8.826492309570312,-0.04773014038801193
1707663725044068000,3.756068115234375,4.273292064666748,8.82650089263916,-0.04740724340081215
1707663725054068000,3.76606787109375,4.273075103759766,8.826607704162598,-0.047168146818876266
1707663725064068000,3.776068115234375,4.273040294647217,8.82662582397461,-0.046941984444856644
1707663725074068000,3.78606787109375,4.272916793823242,8.826685905456543,-0.04681979864835739
1707663725084068000,3.796068115234375,4.272800445556641,8.826743125915527,-0.04656370356678963
1707663725094068000,3.80606787109375,4.272816181182861,8.826736450195312,-0.046403657644987106
1707663725104068000,3.816068115234375,4.272848606109619,8.826722145080566,-0.04622584953904152
1707663725114068000,3.82606787109375,4.272582054138184,8.826850891113281,-0.04622449353337288
1707663725124068000,3.836068115234375,4.2727155685424805,8.826787948608398,-0.04610069841146469
1707663725134068000,3.84606787109375,4.272675037384033,8.826807022094727,-0.046025510877370834
1707663725144068000,3.856068115234375,4.272491455078125,8.826896667480469,-0.04586799070239067
1707663725154068000,3.86606787109375,4.272427082061768,8.82692813873291,-0.04580436274409294
1707663725164068000,3.876068115234375,4.272221565246582,8.827028274536133,-0.045505862683057785
1707663725174068000,3.88606787109375,4.272247314453125,8.827016830444336,-0.04540050029754639
1707663725184068000,3.896068115234375,4.272160530090332,8.827059745788574,-0.04531223699450493
1707663725194068000,3.90606787109375,4.271973609924316,8.827150344848633,-0.04523841291666031
1707663725204068000,3.916068115234375,4.271768569946289,8.827251434326172,-0.0449262410402298
1707663725214068000,3.92606787109375,4.271676540374756,8.82729721069336,-0.04470543563365936
1707663725224068000,3.936068115234375,4.271515846252441,8.827374458312988,-0.04471290111541748
1707663725234068000,3.94606787109375,4.2714457511901855,8.827409744262695,-0.044503696262836456
1707663725244068000,3.956068115234375,4.27137565612793,8.827445030212402,-0.044154830276966095
1707663725254068000,3.96606787109375,4.271301746368408,8.827482223510742,-0.04400771111249924
1707663725264068000,3.976068115234375,4.2711334228515625,8.827563285827637,-0.043810680508613586
1707663725274068000,3.98606787109375,4.271137714385986,8.827563285827637,-0.04357930272817612
1707663725284068000,3.996068115234375,4.27091646194458,8.82767105102539,-0.043328091502189636
1707663725294068000,4.00606787109375,4.270734786987305,8.827760696411133,-0.04318120330572128
1707663725304068000,4.016068115234375,4.270731449127197,8.827762603759766,-0.042862165719270706
1707663725314068000,4.02606787109375,4.270711898803711,8.827774047851562,-0.04258594661951065
1707663725324068000,4.036068115234375,4.27054500579834,8.827855110168457,-0.042561184614896774
1707663725334068000,4.04606787109375,4.2704362869262695,8.827908515930176,-0.04242238402366638
1707663725344068000,4.056068115234375,4.2705159187316895,8.82787036895752,-0.04235958307981491
1707663725354068000,4.06606787109375,4.2706708908081055,8.82779598236084,-0.04224444925785065
1707663725364068000,4.076068115234375,4.270725250244141,8.82776927947998,-0.04224808141589165
1707663725374068000,4.08606787109375,4.270719528198242,8.827771186828613,-0.042376935482025146
1707663725384068000,4.096068115234375,4.270792484283447,8.827735900878906,-0.04238095507025719
1707663725394068000,4.10606787109375,4.270858287811279,8.827704429626465,-0.042299073189496994
1707663725404068000,4.116068115234375,4.2708210945129395,8.82772159576416,-0.04222753271460533
1707663725414068000,4.12606787109375,4.270820140838623,8.827723503112793,-0.04221103712916374
1707663725424068000,4.136068115234375,4.270630359649658,8.827816009521484,-0.042069900780916214
1707663725434068000,4.14606787109375,4.270562648773193,8.827849388122559,-0.04191054776310921
1707663725444068000,4.156068115234375,4.270497798919678,8.827881813049316,-0.04183962941169739
1707663725454068000,4.16606787109375,4.270453453063965,8.827901840209961,-0.04192494973540306
1707663725464068000,4.176068115234375,4.270431041717529,8.827912330627441,-0.04196668043732643
1707663725474068000,4.18606787109375,4.2705488204956055,8.827855110168457,-0.04193102568387985
1707663725484068000,4.196068115234375,4.2704033851623535,8.827927589416504,-0.041867695748806
1707663725494068000,4.20606787109375,4.270253658294678,8.82800006866455,-0.04164626821875572
1707663725504068000,4.216068115234375,4.270188331604004,8.828032493591309,-0.0415387898683548
1707663725514068000,4.22606787109375,4.270191192626953,8.828030586242676,-0.04151470959186554
1707663725524068000,4.236068115234375,4.270270347595215,8.82799243927002,-0.041566766798496246
1707663725534068000,4.24606787109375,4.270320415496826,8.82796859741211,-0.041605144739151
1707663725544068000,4.256068115234375,4.270261764526367,8.827996253967285,-0.04150163009762764
1707663725554068000,4.26606787109375,4.270169258117676,8.828041076660156,-0.04166404530405998
1707663725564068000,4.276068115234375,4.270087718963623,8.828080177307129,-0.04162992909550667
1707663725574068000,4.28606787109375,4.270108699798584,8.828069686889648,-0.04168916866183281
1707663725584068000,4.296068115234375,4.270074367523193,8.828086853027344,-0.04156866669654846
1707663725594068000,4.30606787109375,4.270175933837891,8.828038215637207,-0.04152818024158478
1707663725604068000,4.316068115234375,4.270236968994141,8.828008651733398,-0.041487447917461395
1707663725614068000,4.32606787109375,4.270245552062988,8.828004837036133,-0.041413430124521255
1707663725624068000,4.336068115234375,4.270078182220459,8.828086853027344,-0.041221119463443756
1707663725634068000,4.34606787109375,4.270097732543945,8.828079223632812,-0.040983423590660095
1707663725644068000,4.356068115234375,4.2700514793396,8.828100204467773,-0.04105943813920021
1707663725654068000,4.36606787109375,4.270206451416016,8.828024864196777,-0.0411456823348999
1707663725664068000,4.376068115234375,4.270247936248779,8.828004837036133,-0.041161973029375076
1707663725674068000,4.38606787109375,4.270174503326416,8.828041076660156,-0.04103276878595352
1707663725684068000,4.396068115234375,4.27032470703125,8.82796859741211,-0.04091706871986389
1707663725694068000,4.40606787109375,4.270339012145996,8.827963829040527,-0.040694765746593475
1707663725704068000,4.416068115234375,4.2704548835754395,8.827908515930176,-0.04046342894434929
1707663725714068000,4.42606787109375,4.270689964294434,8.827795028686523,-0.04032556340098381
1707663725724068000,4.436068115234375,4.270769119262695,8.827757835388184,-0.04012245312333107
1707663725734068000,4.44606787109375,4.271002769470215,8.827645301818848,-0.039986614137887955
1707663725744068000,4.456068115234375,4.271066188812256,8.827615737915039,-0.03988289460539818
1707663725754068000,4.46606787109375,4.271132946014404,8.827583312988281,-0.03973120078444481
1707663725764068000,4.476068115234375,4.271143436431885,8.827579498291016,-0.039483215659856796
1707663725774068000,4.48606787109375,4.27130651473999,8.827502250671387,-0.039270251989364624
1707663725784068000,4.496068115234375,4.271347999572754,8.827482223510742,-0.03918512910604477
1707663725794068000,4.50606787109375,4.271496772766113,8.827410697937012,-0.038986001163721085
1707663725804068000,4.516068115234375,4.2715840339660645,8.82736873626709,-0.03884408622980118
1707663725814068000,4.52606787109375,4.271677017211914,8.827324867248535,-0.038770709186792374
1707663725824068000,4.536068115234375,4.271726608276367,8.827301025390625,-0.038640014827251434
1707663725834068000,4.54606787109375,4.271806240081787,8.827262878417969,-0.038476236164569855
1707663725844068000,4.556068115234375,4.271790981292725,8.8272705078125,-0.03842800483107567
1707663725854068000,4.56606787109375,4.271692276000977,8.827319145202637,-0.03825800493359566
1707663725864068000,4.576068115234375,4.2715067863464355,8.827408790588379,-0.03817888721823692
1707663725874068000,4.58606787109375,4.271291732788086,8.8275146484375,-0.0379619300365448
1707663725884068000,4.596068115234375,4.271146297454834,8.827585220336914,-0.037924569100141525
1707663725894068000,4.60606787109375,4.270894527435303,8.827704429626465,-0.03832703083753586
1707663725904068000,4.616068115234375,4.270671844482422,8.827815055847168,-0.03791537508368492
1707663725914068000,4.62606787109375,4.270593166351318,8.827851295471191,-0.03831468150019646
1707663725924068000,4.636068115234375,4.270573616027832,8.827861785888672,-0.038174908608198166
1707663725934068000,4.64606787109375,4.270521640777588,8.827885627746582,-0.03839602321386337
1707663725944068000,4.656068115234375,4.2703166007995605,8.827984809875488,-0.038239963352680206
1707663725954068000,4.66606787109375,4.2700629234313965,8.828108787536621,-0.03816835582256317
1707663725964068000,4.676068115234375,4.270072937011719,8.828103065490723,-0.03812885284423828
1707663725974068000,4.68606787109375,4.270040035247803,8.828117370605469,-0.03832906484603882
1707663725984068000,4.696068115234375,4.27009916305542,8.828089714050293,-0.03841240331530571
1707663725994068000,4.70606787109375,4.269877910614014,8.82819652557373,-0.03836230933666229
1707663726004068000,4.716068115234375,4.269897937774658,8.828186988830566,-0.03842312842607498
1707663726014068000,4.72606787109375,4.270122051239014,8.828079223632812,-0.03840169310569763
1707663726024068000,4.736068115234375,4.270081043243408,8.828099250793457,-0.03844401612877846
1707663726034068000,4.74606787109375,4.270045280456543,8.828115463256836,-0.03840215131640434
1707663726044068000,4.756068115234375,4.270140171051025,8.828069686889648,-0.03852727636694908
1707663726054068000,4.76606787109375,4.270043849945068,8.828115463256836,-0.03869466856122017
1707663726064068000,4.776068115234375,4.270068645477295,8.828103065490723,-0.038517970591783524
1707663726074068000,4.78606787109375,4.270262718200684,8.828011512756348,-0.03840713948011398
1707663726084068000,4.796068115234375,4.27034330368042,8.827971458435059,-0.03831589221954346
1707663726094068000,4.80606787109375,4.2705793380737305,8.82785701751709,-0.03836219385266304
1707663726104068000,4.816068115234375,4.270643711090088,8.827827453613281,-0.038274284452199936
1707663726114068000,4.82606787109375,4.270844459533691,8.827730178833008,-0.03819973021745682
1707663726124068000,4.836068115234375,4.270847320556641,8.827728271484375,-0.03803868219256401
1707663726134068000,4.84606787109375,4.270684719085693,8.827808380126953,-0.03795341029763222
1707663726144068000,4.856068115234375,4.270859241485596,8.82772445678711,-0.03773776814341545
1707663726154068000,4.86606787109375,4.270859241485596,8.827725410461426,-0.03780286759138107
1707663726164068000,4.876068115234375,4.270886421203613,8.827712059020996,-0.03771907091140747
1707663726174068000,4.88606787109375,4.270890712738037,8.827710151672363,-0.03763255849480629
1707663726184068000,4.896068115234375,4.270835876464844,8.827736854553223,-0.03748886287212372
1707663726194068000,4.90606787109375,4.270621299743652,8.827840805053711,-0.03763354569673538
1707663726204068000,4.916068115234375,4.270479679107666,8.827909469604492,-0.03747784346342087
1707663726214068000,4.92606787109375,4.270296573638916,8.827998161315918,-0.03733617067337036
1707663726224068000,4.936068115234375,4.270057678222656,8.828113555908203,-0.037536732852458954
1707663726234068000,4.94606787109375,4.269954204559326,8.828164100646973,-0.03741229325532913
1707663726244068000,4.956068115234375,4.2698073387146,8.82823371887207,-0.03763600438833237
1707663726254068000,4.96606787109375,4.269819736480713,8.828227996826172,-0.03764066845178604
1707663726264068000,4.976068115234375,4.269845962524414,8.828215599060059,-0.03772179037332535
1707663726274068000,4.98606787109375,4.2697224617004395,8.828274726867676,-0.03771624714136124
1707663726284068000,4.996068115234375,4.269548416137695,8.82835865020752,-0.0377313494682312
1707663726294068000,5.00606787109375,4.269369125366211,8.828445434570312,-0.03776973485946655
1707663726304068000,5.016068115234375,4.269400596618652,8.828431129455566,-0.037726253271102905
1707663726314068000,5.02606787109375,4.269340515136719,8.828458786010742,-0.03772209584712982
1707663726324068000,5.036068115234375,4.269312858581543,8.828473091125488,-0.03777308389544487
1707663726334068000,5.04606787109375,4.269503593444824,8.828380584716797,-0.03784311190247536
1707663726344068000,5.056068115234375,4.269530773162842,8.828367233276367,-0.03783385455608368
1707663726354068000,5.06606787109375,4.269629955291748,8.82831859588623,-0.03789564594626427
1707663726364068000,5.076068115234375,4.269591808319092,8.828337669372559,-0.03777099400758743
1707663726374068000,5.08606787109375,4.269663333892822,8.828303337097168,-0.03792589157819748
1707663726384068000,5.096068115234375,4.269801616668701,8.828237533569336,-0.037719257175922394
1707663726394068000,5.10606787109375,4.269862174987793,8.828206062316895,-0.03801874816417694
1707663726404068000,5.116068115234375,4.2696943283081055,8.828287124633789,-0.03789806365966797
1707663726414068000,5.12606787109375,4.2697906494140625,8.828240394592285,-0.038090333342552185
1707663726424068000,5.136068115234375,4.269778251647949,8.828246116638184,-0.03791716694831848
1707663726434068000,5.14606787109375,4.269955635070801,8.828160285949707,-0.03821643441915512
1707663726444068000,5.156068115234375,4.270008087158203,8.828134536743164,-0.03817901015281677
1707663726454068000,5.16606787109375,4.270151138305664,8.828064918518066,-0.038252927362918854
1707663726464068000,5.176068115234375,4.270346164703369,8.827970504760742,-0.038141436874866486
1707663726474068000,5.18606787109375,4.2704668045043945,8.827913284301758,-0.03801560774445534
1707663726484068000,5.196068115234375,4.270674228668213,8.827812194824219,-0.038002923130989075
1707663726494068000,5.20606787109375,4.270623683929443,8.827836990356445,-0.03794023394584656
1707663726504068000,5.216068115234375,4.270617485046387,8.827841758728027,-0.03781157359480858
1707663726514068000,5.22606787109375,4.270656585693359,8.8278226852417,-0.03776337951421738
1707663726524068000,5.236068115234375,4.270695209503174,8.827804565429688,-0.03773455321788788
1707663726534068000,5.24606787109375,4.270845890045166,8.827731132507324,-0.037690818309783936
1707663726544068000,5.256068115234375,4.270858287811279,8.827725410461426,-0.03774043917655945
1707663726554068000,5.26606787109375,4.270634174346924,8.827834129333496,-0.03760835900902748
1707663726564068000,5.276068115234375,4.2703938484191895,8.827950477600098,-0.03753625601530075
1707663726574068000,5.28606787109375,4.2703986167907715,8.827948570251465,-0.0375499464571476
1707663726584068000,5.296068115234375,4.270395278930664,8.827949523925781,-0.037550464272499084
1707663726594068000,5.30606787109375,4.27044153213501,8.827927589416504,-0.03738358989357948
1707663726604068000,5.316068115234375,4.2703537940979,8.827971458435059,-0.03734097629785538
1707663726614068000,5.32606787109375,4.270178318023682,8.828057289123535,-0.037257976830005646
1707663726624068000,5.336068115234375,4.270031929016113,8.828125953674316,-0.037386972457170486
1707663726634068000,5.34606787109375,4.270041465759277,8.82812213897705,-0.037247996777296066
1707663726644068000,5.356068115234375,4.2700114250183105,8.828136444091797,-0.03724846988916397
1707663726654068000,5.36606787109375,4.270137310028076,8.828076362609863,-0.03726840764284134
1707663726664068000,5.376068115234375,4.270171165466309,8.828059196472168,-0.03736944496631622
1707663726674068000,5.38606787109375,4.270205497741699,8.828042030334473,-0.03720579668879509
1707663726684068000,5.396068115234375,4.270052433013916,8.828117370605469,-0.03719994053244591
1707663726694068000,5.40606787109375,4.27024507522583,8.828023910522461,-0.037333786487579346
1707663726704068000,5.416068115234375,4.270291805267334,8.828001022338867,-0.03742266446352005
1707663726714068000,5.42606787109375,4.270384788513184,8.82795524597168,-0.03755488246679306
1707663726724068000,5.436068115234375,4.2705488204956055,8.827875137329102,-0.03760742023587227
1707663726734068000,5.44606787109375,4.2705841064453125,8.827857971191406,-0.03769842907786369
1707663726744068000,5.456068115234375,4.270600318908691,8.827849388122559,-0.037811342626810074
1707663726754068000,5.46606787109375,4.270805835723877,8.827750205993652,-0.03795711696147919
1707663726764068000,5.476068115234375,4.2708821296691895,8.827713012695312,-0.0379137359559536
1707663726774068000,5.48606787109375,4.271151542663574,8.827583312988281,-0.0377434678375721
1707663726784068000,5.496068115234375,4.271573543548584,8.82737922668457,-0.03750838711857796
1707663726794068000,5.50606787109375,4.271823883056641,8.827259063720703,-0.037573300302028656
1707663726804068000,5.516068115234375,4.271749019622803,8.827295303344727,-0.037483591586351395
1707663726814068000,5.52606787109375,4.271944999694824,8.827199935913086,-0.03748280182480812
1707663726824068000,5.536068115234375,4.272173881530762,8.82708740234375,-0.03782406076788902
1707663726834068000,5.54606787109375,4.272144317626953,8.827105522155762,-0.03725093603134155
1707663726844068000,5.556068115234375,4.272064208984375,8.827142715454102,-0.03747144713997841
1707663726854068000,5.56606787109375,4.272165298461914,8.827093124389648,-0.037592627108097076
1707663726864068000,5.576068115234375,4.271924018859863,8.82720947265625,-0.037714239209890366
1707663726874068000,5.58606787109375,4.271795272827148,8.827272415161133,-0.0376933217048645
1707663726884068000,5.596068115234375,4.271755218505859,8.827292442321777,-0.03763289749622345
1707663726894068000,5.60606787109375,4.271849155426025,8.827244758605957,-0.03789486363530159
1707663726904068000,5.616068115234375,4.27180814743042,8.827265739440918,-0.03773963823914528
1707663726914068000,5.62606787109375,4.271703243255615,8.827316284179688,-0.03761477768421173
1707663726924068000,5.636068115234375,4.27154541015625,8.827391624450684,-0.037882737815380096
1707663726934068000,5.64606787109375,4.271612644195557,8.827359199523926,-0.03810310363769531
1707663726944068000,5.656068115234375,4.271475791931152,8.827425003051758,-0.03800297901034355
1707663726954068000,5.66606787109375,4.271603107452393,8.827363967895508,-0.03795362263917923
1707663726964068000,5.676068115234375,4.271782875061035,8.827276229858398,-0.03807077556848526
1707663726974068000,5.68606787109375,4.271631717681885,8.827349662780762,-0.03822127357125282
1707663726984068000,5.696068115234375,4.271789073944092,8.827272415161133,-0.03826185315847397
1707663726994068000,5.70606787109375,4.271989822387695,8.827174186706543,-0.03837229683995247
1707663727004068000,5.716068115234375,4.271975040435791,8.82718276977539,-0.03825245052576065
1707663727014068000,5.72606787109375,4.271934509277344,8.827202796936035,-0.03817363828420639
1707663727024068000,5.736068115234375,4.272181987762451,8.827081680297852,-0.03837715834379196
1707663727034068000,5.74606787109375,4.272433757781982,8.826958656311035,-0.038527294993400574
1707663727044068000,5.756068115234375,4.272536754608154,8.826910018920898,-0.03845461830496788
1707663727054068000,5.76606787109375,4.2727508544921875,8.82680606842041,-0.03845988214015961
1707663727064068000,5.776068115234375,4.272868633270264,8.826749801635742,-0.038445282727479935
1707663727074068000,5.78606787109375,4.273094654083252,8.826641082763672,-0.03840320557355881
1707663727084068000,5.796068115234375,4.273261547088623,8.826558113098145,-0.03856383636593819
1707663727094068000,5.80606787109375,4.273479461669922,8.82645320892334,-0.038362741470336914
1707663727104068000,5.816068115234375,4.273608207702637,8.826391220092773,-0.038573503494262695
1707663727114068000,5.82606787109375,4.273635387420654,8.826377868652344,-0.03851008042693138
1707663727124068000,5.836068115234375,4.273946285247803,8.826227188110352,-0.03858586773276329
1707663727134068000,5.84606787109375,4.274109363555908,8.82614803314209,-0.03851375728845596
1707663727144068000,5.856068115234375,4.274099826812744,8.826152801513672,-0.03853099048137665
1707663727154068000,5.86606787109375,4.274221897125244,8.826094627380371,-0.038290105760097504
1707663727164068000,5.876068115234375,4.274072170257568,8.82616901397705,-0.038167163729667664
1707663727174068000,5.88606787109375,4.274076461791992,8.826165199279785,-0.03811438009142876
1707663727184068000,5.896068115234375,4.273991107940674,8.826207160949707,-0.03807622939348221
1707663727194068000,5.90606787109375,4.27394437789917,8.8262300491333,-0.03794800117611885
1707663727204068000,5.916068115234375,4.274081707000732,8.826165199279785,-0.03778687119483948
1707663727214068000,5.92606787109375,4.273955821990967,8.826227188110352,-0.037471093237400055
1707663727224068000,5.936068115234375,4.274048328399658,8.82618236541748,-0.037463944405317307
1707663727234068000,5.94606787109375,4.273991584777832,8.826210021972656,-0.03722189739346504
1707663727244068000,5.956068115234375,4.274123191833496,8.826147079467773,-0.037289321422576904
1707663727254068000,5.96606787109375,4.274132251739502,8.826143264770508,-0.037069063633680344
1707663727264068000,5.976068115234375,4.2741875648498535,8.826115608215332,-0.03714609518647194
1707663727274068000,5.98606787109375,4.2741265296936035,8.82614517211914,-0.037057243287563324
1707663727284068000,5.996068115234375,4.274157524108887,8.826132774353027,-0.036842357367277145
1707663727294068000,6.00606787109375,4.274240970611572,8.826091766357422,-0.036770667880773544
1707663727304068000,6.016068115234375,4.274454116821289,8.825989723205566,-0.03664213791489601
1707663727314068000,6.02606787109375,4.274321556091309,8.826053619384766,-0.03663794696331024
1707663727324068000,6.036068115234375,4.274259567260742,8.826082229614258,-0.03681348264217377
1707663727334068000,6.04606787109375,4.274398326873779,8.826014518737793,-0.03720216453075409
1707663727344068000,6.056068115234375,4.2743940353393555,8.82601547241211,-0.03706590458750725
1707663727354068000,6.06606787109375,4.274380683898926,8.82602310180664,-0.03707386553287506
1707663727364068000,6.076068115234375,4.274319648742676,8.826051712036133,-0.03719138354063034
1707663727374068000,6.08606787109375,4.274407386779785,8.826009750366211,-0.03726028650999069
1707663727384068000,6.096068115234375,4.274403095245361,8.826009750366211,-0.03744937479496002
1707663727394068000,6.10606787109375,4.274332523345947,8.826041221618652,-0.038043562322854996
1707663727404068000,6.116068115234375,4.273978233337402,8.826215744018555,-0.03775368258357048
1707663727414068000,6.12606787109375,4.273882865905762,8.826258659362793,-0.03841506317257881
1707663727424068000,6.136068115234375,4.273825645446777,8.826286315917969,-0.038231011480093
1707663727434068000,6.14606787109375,4.27374267578125,8.826325416564941,-0.03853071480989456
1707663727444068000,6.156068115234375,4.274006366729736,8.82619857788086,-0.03844030573964119
1707663727454068000,6.16606787109375,4.274209022521973,8.826098442077637,-0.038849662989377975
1707663727464068000,6.176068115234375,4.274245738983154,8.826080322265625,-0.03887135535478592
1707663727474068000,6.18606787109375,4.274272441864014,8.826066970825195,-0.039130840450525284
1707663727484068000,6.196068115234375,4.274261474609375,8.826071739196777,-0.03909908980131149
1707663727494068000,6.20606787109375,4.2743330001831055,8.826038360595703,-0.03909289836883545
1707663727504068000,6.216068115234375,4.274332046508789,8.826038360595703,-0.03909078240394592
1707663727514068000,6.22606787109375,4.274284839630127,8.82606029510498,-0.038964029401540756
1707663727524068000,6.236068115234375,4.274317741394043,8.826045036315918,-0.03894652798771858
1707663727534068000,6.24606787109375,4.274304389953613,8.826051712036133,-0.0389791876077652
1707663727544068000,6.256068115234375,4.274186611175537,8.826108932495117,-0.038873281329870224
1707663727554068000,6.26606787109375,4.27410364151001,8.826148986816406,-0.03899069502949715
1707663727564068000,6.276068115234375,4.274085521697998,8.826159477233887,-0.03857266157865524
1707663727574068000,6.28606787109375,4.2739577293396,8.826218605041504,-0.039210155606269836
1707663727584068000,6.296068115234375,4.273787975311279,8.826302528381348,-0.03885890170931816
1707663727594068000,6.30606787109375,4.273752212524414,8.826318740844727,-0.03897329047322273
1707663727604068000,6.316068115234375,4.273593425750732,8.826396942138672,-0.03901560232043266
1707663727614068000,6.32606787109375,4.27347469329834,8.82645320892334,-0.039134833961725235
1707663727624068000,6.336068115234375,4.273556709289551,8.826414108276367,-0.03907782956957817
1707663727634068000,6.34606787109375,4.273592948913574,8.826396942138672,-0.03895445913076401
1707663727644068000,6.356068115234375,4.273429870605469,8.826473236083984,-0.03927592560648918
1707663727654068000,6.36606787109375,4.273545265197754,8.82641887664795,-0.038881927728652954
1707663727664068000,6.376068115234375,4.27351713180542,8.826432228088379,-0.0390562079846859
1707663727674068000,6.38606787109375,4.273593902587891,8.826396942138672,-0.0388026088476181
1707663727684068000,6.396068115234375,4.274043083190918,8.826178550720215,-0.03882263973355293
1707663727694068000,6.40606787109375,4.273909091949463,8.826244354248047,-0.038712017238140106
1707663727704068000,6.416068115234375,4.2729387283325195,8.826715469360352,-0.03861740604043007
1707663727714068000,6.42606787109375,4.273101806640625,8.826634407043457,-0.03878450021147728
1707663727724068000,6.436068115234375,4.272853374481201,8.826756477355957,-0.03850794583559036
1707663727734068000,6.44606787109375,4.272790431976318,8.826787948608398,-0.038390036672353745
1707663727744068000,6.456068115234375,4.272610664367676,8.826874732971191,-0.03857972472906113
1707663727754068000,6.46606787109375,4.272526741027832,8.82691478729248,-0.03838175907731056
1707663727764068000,6.476068115234375,4.272568702697754,8.82689094543457,-0.03917738050222397
1707663727774068000,6.48606787109375,4.2727556228637695,8.826804161071777,-0.0384344756603241
1707663727784068000,6.496068115234375,4.272709846496582,8.826823234558105,-0.03928839787840843
1707663727794068000,6.50606787109375,4.272505283355713,8.826924324035645,-0.03860172629356384
1707663727804068000,6.516068115234375,4.273039817810059,8.826663970947266,-0.039094895124435425
1707663727814068000,6.52606787109375,4.272452354431152,8.826950073242188,-0.03854820504784584
1707663727824068000,6.536068115234375,4.2720184326171875,8.827157974243164,-0.03913276270031929
1707663727834068000,6.54606787109375,4.272031307220459,8.827153205871582,-0.03886036202311516
1707663727844068000,6.556068115234375,4.271965980529785,8.82718276977539,-0.039067260921001434
1707663727854068000,6.56606787109375,4.2720417976379395,8.827146530151367,-0.038971710950136185
1707663727864068000,6.576068115234375,4.272173881530762,8.827083587646484,-0.03876741975545883
1707663727874068000,6.58606787109375,4.272353649139404,8.826997756958008,-0.03867200389504433
1707663727884068000,6.596068115234375,4.272542953491211,8.826906204223633,-0.03877709433436394
1707663727894068000,6.60606787109375,4.272994518280029,8.826684951782227,-0.0392826646566391
1707663727904068000,6.616068115234375,4.273646831512451,8.826369285583496,-0.039194103330373764
1707663727914068000,6.62606787109375,4.273861408233643,8.826265335083008,-0.03929309546947479
1707663727924068000,6.636068115234375,4.274139881134033,8.826130867004395,-0.039108287543058395
1707663727934068000,6.64606787109375,4.274355411529541,8.826026916503906,-0.03927617147564888
1707663727944068000,6.656068115234375,4.2744855880737305,8.82596206665039,-0.03926011919975281
1707663727954068000,6.66606787109375,4.275115966796875,8.825657844543457,-0.03932303562760353
1707663727964068000,6.676068115234375,4.275654315948486,8.825393676757812,-0.03964927792549133
1707663727974068000,6.68606787109375,4.275940418243408,8.8252534866333,-0.04037001356482506
1707663727984068000,6.696068115234375,4.276042938232422,8.825203895568848,-0.040117524564266205
1707663727994068000,6.70606787109375,4.2760748863220215,8.825186729431152,-0.04047887399792671
1707663728004068000,6.716068115234375,4.276119709014893,8.825164794921875,-0.04042831435799599
1707663728014068000,6.72606787109375,4.276089191436768,8.825181007385254,-0.0405568853020668
1707663728024068000,6.736068115234375,4.275733947753906,8.82535171508789,-0.04051859304308891
1707663728034068000,6.74606787109375,4.275638103485107,8.825398445129395,-0.040635865181684494
1707663728044068000,6.756068115234375,4.275399208068848,8.825512886047363,-0.040793903172016144
1707663728054068000,6.76606787109375,4.2753167152404785,8.825553894042969,-0.0406084842979908
1707663728064068000,6.776068115234375,4.275195598602295,8.825611114501953,-0.040739502757787704
1707663728074068000,6.78606787109375,4.275066375732422,8.825674057006836,-0.04081156477332115
1707663728084068000,6.796068115234375,4.275191783905029,8.825613975524902,-0.04075970500707626
1707663728094068000,6.80606787109375,4.2754292488098145,8.8254976272583,-0.04081100597977638
1707663728104068000,6.816068115234375,4.275583267211914,8.825423240661621,-0.04084038361907005
1707663728114068000,6.82606787109375,4.2754974365234375,8.825465202331543,-0.04095906391739845
1707663728124068000,6.836068115234375,4.275540351867676,8.825446128845215,-0.0405929833650589
1707663728134068000,6.84606787109375,4.275693416595459,8.825371742248535,-0.04030619561672211
1707663728144068000,6.856068115234375,4.275780200958252,8.825331687927246,-0.040068503469228745
1707663728154068000,6.86606787109375,4.275870323181152,8.825289726257324,-0.03975532948970795
1707663728164068000,6.876068115234375,4.275241851806641,8.825591087341309,-0.04036787524819374
1707663728174068000,6.88606787109375,4.278100490570068,8.82420539855957,-0.0403340645134449
1707663728184068000,6.896068115234375,4.280293941497803,8.823144912719727,-0.03985241428017616
1707663728194068000,6.90606787109375,4.280455112457275,8.82305908203125,-0.041501063853502274
1707663728204068000,6.916068115234375,4.281013011932373,8.822796821594238,-0.03989722207188606
1707663728214068000,6.92606787109375,4.28132438659668,8.822641372680664,-0.04084699973464012
1707663728224068000,6.936068115234375,4.283632278442383,8.821524620056152,-0.0399322547018528
1707663728234068000,6.94606787109375,4.282251834869385,8.822197914123535,-0.03914488106966019
1707663728244068000,6.956068115234375,4.283015727996826,8.821830749511719,-0.038501590490341187
1707663728254068000,6.96606787109375,4.282920837402344,8.82187557220459,-0.03867429867386818
1707663728264068000,6.976068115234375,4.283359527587891,8.8216552734375,-0.04031899571418762
1707663728274068000,6.98606787109375,4.283358573913574,8.821663856506348,-0.03834697604179382
1707663728284068000,6.996068115234375,4.282866477966309,8.821900367736816,-0.03893367573618889
1707663728294068000,7.00606787109375,4.282774925231934,8.821945190429688,-0.038889698684215546
1707663728304068000,7.016068115234375,4.282951831817627,8.821858406066895,-0.03901303559541702
1707663728314068000,7.02606787109375,4.282968997955322,8.821850776672363,-0.03871585428714752
1707663728324068000,7.036068115234375,4.2830376625061035,8.821818351745605,-0.03891678526997566
1707663728334068000,7.04606787109375,4.283045768737793,8.821812629699707,-0.03898513317108154
1707663728344068000,7.056068115234375,4.282942295074463,8.821861267089844,-0.03937540948390961
1707663728354068000,7.06606787109375,4.2825398445129395,8.822056770324707,-0.03948958218097687
1707663728364068000,7.076068115234375,4.2834930419921875,8.821589469909668,-0.040358562022447586
1707663728374068000,7.08606787109375,4.281054973602295,8.822773933410645,-0.04007842764258385
1707663728384068000,7.096068115234375,4.282316207885742,8.822162628173828,-0.04000648483633995
1707663728394068000,7.10606787109375,4.2831854820251465,8.82174015045166,-0.04019901156425476
1707663728404068000,7.116068115234375,4.281903266906738,8.822351455688477,-0.04244973510503769
1707663728414068000,7.12606787109375,4.281188011169434,8.822705268859863,-0.04115157574415207
1707663728424068000,7.136068115234375,4.281064510345459,8.822763442993164,-0.04146987944841385
1707663728434068000,7.14606787109375,4.281102180480957,8.822744369506836,-0.041754744946956635
1707663728444068000,7.156068115234375,4.2818827629089355,8.82236385345459,-0.042034491896629333
1707663728454068000,7.16606787109375,4.281299114227295,8.822650909423828,-0.04131755232810974
1707663728464068000,7.176068115234375,4.280570030212402,8.823005676269531,-0.040882762521505356
1707663728474068000,7.18606787109375,4.280449867248535,8.8230619430542,-0.041285522282123566
1707663728484068000,7.196068115234375,4.280669689178467,8.822955131530762,-0.041410211473703384
1707663728494068000,7.20606787109375,4.281030654907227,8.822775840759277,-0.04229593649506569
1707663728504068000,7.216068115234375,4.281254768371582,8.822667121887207,-0.04226444661617279
1707663728514068000,7.22606787109375,4.281429290771484,8.822575569152832,-0.043655943125486374
1707663728524068000,7.236068115234375,4.281174659729004,8.82270622253418,-0.04229256138205528
1707663728534068000,7.24606787109375,4.28082799911499,8.822867393493652,-0.043766822665929794
1707663728544068000,7.256068115234375,4.280818462371826,8.822882652282715,-0.04161342233419418
1707663728554068000,7.26606787109375,4.28170919418335,8.822447776794434,-0.04203438013792038
1707663728564068000,7.276068115234375,4.281675338745117,8.822473526000977,-0.04007156938314438
1707663728574068000,7.28606787109375,4.281622886657715,8.82249641418457,-0.04057040438055992
1707663728584068000,7.296068115234375,4.281594753265381,8.822515487670898,-0.03961733728647232
1707663728594068000,7.30606787109375,4.281817436218262,8.822400093078613,-0.04115547984838486
1707663728604068000,7.316068115234375,4.2819695472717285,8.822325706481934,-0.04119563102722168
1707663728614068000,7.32606787109375,4.281852722167969,8.822372436523438,-0.04311681166291237
1707663728624068000,7.336068115234375,4.281702995300293,8.822455406188965,-0.041151292622089386
1707663728634068000,7.34606787109375,4.281468868255615,8.822562217712402,-0.042345475405454636
1707663728644068000,7.356068115234375,4.281650543212891,8.822482109069824,-0.04072494059801102
1707663728654068000,7.36606787109375,4.28169584274292,8.822455406188965,-0.04180731996893883
1707663728664068000,7.376068115234375,4.28181266784668,8.822403907775879,-0.04068882763385773
1707663728674068000,7.38606787109375,4.282227039337158,8.822197914123535,-0.041886456310749054
1707663728684068000,7.396068115234375,4.28223180770874,8.822198867797852,-0.0413573794066906
1707663728694068000,7.40606787109375,4.281787872314453,8.822410583496094,-0.04189770668745041
1707663728704068000,7.416068115234375,4.28144645690918,8.822578430175781,-0.0413668118417263
1707663728714068000,7.42606787109375,4.281264781951904,8.82266902923584,-0.041015252470970154
1707663728724068000,7.436068115234375,4.281422138214111,8.822593688964844,-0.04065200313925743
1707663728734068000,7.44606787109375,4.281617641448975,8.822502136230469,-0.03974492475390434
1707663728744068000,7.456068115234375,4.281589031219482,8.822518348693848,-0.039439864456653595
1707663728754068000,7.46606787109375,4.280561923980713,8.82302188873291,-0.0381019189953804
1707663728764068000,7.476068115234375,4.279395580291748,8.823582649230957,-0.039249319583177567
1707663728774068000,7.48606787109375,4.27913236618042,8.82369327545166,-0.04321989044547081
1707663728784068000,7.496068115234375,4.280705451965332,8.822930335998535,-0.04274403303861618
1707663728794068000,7.50606787109375,4.283188343048096,8.821731567382812,-0.041780561208724976
1707663728804068000,7.516068115234375,4.284052848815918,8.821321487426758,-0.03931156173348427
1707663728814068000,7.52606787109375,4.2809977531433105,8.8228178024292,-0.03640172258019447
1707663728824068000,7.536068115234375,4.276513576507568,8.824982643127441,-0.03872166946530342
1707663728834068000,7.54606787109375,4.275492191314697,8.825454711914062,-0.04362276569008827
1707663728844068000,7.556068115234375,4.280337810516357,8.823101997375488,-0.04449392855167389
1707663728854068000,7.56606787109375,4.284976959228516,8.820852279663086,-0.04401504993438721
1707663728864068000,7.576068115234375,4.283374309539795,8.82164478302002,-0.041025932878255844
1707663728874068000,7.58606787109375,4.278275489807129,8.824127197265625,-0.039074067026376724
1707663728884068000,7.596068115234375,4.275862216949463,8.825289726257324,-0.04072855785489082
1707663728894068000,7.60606787109375,4.278496742248535,8.824018478393555,-0.03930114954710007
1707663728904068000,7.616068115234375,4.283545970916748,8.82155990600586,-0.04135356843471527
1707663728914068000,7.62606787109375,4.286425590515137,8.82017707824707,-0.03760896250605583
1707663728924068000,7.636068115234375,4.284634590148926,8.821053504943848,-0.03600740805268288
1707663728934068000,7.64606787109375,4.2805023193359375,8.823058128356934,-0.03652597591280937
1707663728944068000,7.656068115234375,4.277606964111328,8.824461936950684,-0.03668969124555588
1707663728954068000,7.66606787109375,4.279022693634033,8.82375717163086,-0.040935367345809937
1707663728964068000,7.676068115234375,4.2823591232299805,8.82213306427002,-0.04194851219654083
1707663728974068000,7.68606787109375,4.282499313354492,8.822038650512695,-0.046983372420072556
1707663728984068000,7.696068115234375,4.27937650680542,8.823540687561035,-0.0494823157787323
1707663728994068000,7.70606787109375,4.278183460235596,8.824161529541016,-0.04147268086671829
1707663729004068000,7.716068115234375,4.282087802886963,8.82229232788086,-0.0356244333088398
1707663729014068000,7.72606787109375,4.285640716552734,8.820588111877441,-0.029951555654406548
1707663729024068000,7.736068115234375,4.284806728363037,8.821009635925293,-0.024681564420461655
1707663729034068000,7.74606787109375,4.280152797698975,8.823247909545898,-0.03116231970489025
1707663729044068000,7.756068115234375,4.277622699737549,8.82445240020752,-0.036871276795864105
1707663729054068000,7.76606787109375,4.279768943786621,8.823410987854004,-0.03720390051603317
1707663729064068000,7.776068115234375,4.2821946144104,8.82217788696289,-0.04864254221320152
1707663729074068000,7.78606787109375,4.2823710441589355,8.822110176086426,-0.045509904623031616
1707663729084068000,7.796068115234375,4.280768871307373,8.822869300842285,-0.04893524572253227
1707663729094068000,7.80606787109375,4.27877950668335,8.823851585388184,-0.04570436477661133
1707663729104068000,7.816068115234375,4.277509689331055,8.824475288391113,-0.044033654034137726
1707663729114068000,7.82606787109375,4.279369831085205,8.823602676391602,-0.03775016590952873
1707663729124068000,7.836068115234375,4.279097557067871,8.823715209960938,-0.041969336569309235
1707663729134068000,7.84606787109375,4.281479835510254,8.822601318359375,-0.0320223905146122
1707663729144068000,7.856068115234375,4.281520843505859,8.8225679397583,-0.03580179810523987
1707663729154068000,7.86606787109375,4.279427528381348,8.823587417602539,-0.03467107191681862
1707663729164068000,7.876068115234375,4.278334140777588,8.824053764343262,-0.047999244183301926
1707663729174068000,7.88606787109375,4.27830696105957,8.824053764343262,-0.05028683692216873
1707663729184068000,7.896068115234375,4.279417514801025,8.82345962524414,-0.05937634035944939
1707663729194068000,7.90606787109375,4.2807183265686035,8.822861671447754,-0.05454486981034279
1707663729204068000,7.916068115234375,4.280728340148926,8.822848320007324,-0.055613260716199875
1707663729214068000,7.92606787109375,4.278724670410156,8.823884010314941,-0.04445298761129379
1707663729224068000,7.936068115234375,4.27811861038208,8.824164390563965,-0.0470915250480175
1707663729234068000,7.94606787109375,4.280035972595215,8.823259353637695,-0.04206308722496033
1707663729244068000,7.956068115234375,4.283957481384277,8.821335792541504,-0.046177856624126434
1707663729254068000,7.96606787109375,4.2852959632873535,8.820684432983398,-0.04636254534125328
1707663729264068000,7.976068115234375,4.283034324645996,8.821788787841797,-0.045324742794036865
1707663729274068000,7.98606787109375,4.279863357543945,8.823347091674805,-0.041331253945827484
1707663729284068000,7.996068115234375,4.2795729637146,8.823460578918457,-0.04660423472523689
1707663729294068000,8.00606787109375,4.280855655670166,8.822857856750488,-0.04311329498887062
1707663729304068000,8.016068115234376,4.282627105712891,8.821988105773926,-0.04485740512609482
1707663729314068000,8.02606787109375,4.283112049102783,8.821773529052734,-0.04072542116045952
1707663729324068000,8.036068115234375,4.282814979553223,8.821917533874512,-0.040752969682216644
1707663729334068000,8.04606787109375,4.281526565551758,8.822549819946289,-0.03923454508185387
1707663729344068000,8.056068115234375,4.281625270843506,8.822505950927734,-0.03828410431742668
1707663729354068000,8.06606787109375,4.283764839172363,8.821470260620117,-0.0375327467918396
1707663729364068000,8.076068115234374,4.284409046173096,8.821162223815918,-0.036455534398555756
1707663729374068000,8.08606787109375,4.282135486602783,8.822275161743164,-0.03396143764257431
1707663729384068000,8.096068115234376,4.279596328735352,8.823508262634277,-0.03389441594481468
1707663729394068000,8.10606787109375,4.2799906730651855,8.823321342468262,-0.03261618688702583
1707663729404068000,8.116068115234375,4.282656192779541,8.822025299072266,-0.03340793773531914
1707663729414068000,8.12606787109375,4.284723281860352,8.821022987365723,-0.033085696399211884
1707663729424068000,8.136068115234375,4.284454345703125,8.821155548095703,-0.03248891234397888
1707663729434068000,8.14606787109375,4.282577991485596,8.822066307067871,-0.0326051339507103
1707663729444068000,8.156068115234374,4.280057430267334,8.823293685913086,-0.031231191009283066
1707663729454068000,8.16606787109375,4.279439926147461,8.823593139648438,-0.031205132603645325
1707663729464068000,8.176068115234376,4.28079080581665,8.822941780090332,-0.030280407518148422
1707663729474068000,8.18606787109375,4.282750129699707,8.821982383728027,-0.03255615755915642
1707663729484068000,8.196068115234375,4.283883571624756,8.821436882019043,-0.03153681755065918
1707663729494068000,8.20606787109375,4.283292770385742,8.821714401245117,-0.03400057181715965
1707663729504068000,8.216068115234375,4.281474590301514,8.822599411010742,-0.03320103883743286
1707663729514068000,8.22606787109375,4.2809929847717285,8.822820663452148,-0.03638878092169762
1707663729524068000,8.236068115234374,4.28125524520874,8.82269287109375,-0.03668978065252304
1707663729534068000,8.24606787109375,4.281771659851074,8.822428703308105,-0.03977883979678154
1707663729544068000,8.256068115234376,4.281624794006348,8.822503089904785,-0.03897855803370476
1707663729554068000,8.26606787109375,4.281102180480957,8.822749137878418,-0.0405544750392437
1707663729564068000,8.276068115234375,4.281558990478516,8.822531700134277,-0.03969695046544075
1707663729574068000,8.28606787109375,4.283159255981445,8.82174301147461,-0.04207295924425125
1707663729584068000,8.296068115234375,4.2850117683410645,8.820847511291504,-0.04145188629627228
1707663729594068000,8.30606787109375,4.285470485687256,8.820612907409668,-0.04390248283743858
1707663729604068000,8.316068115234375,4.283872127532959,8.821388244628906,-0.04378711059689522
1707663729614068000,8.32606787109375,4.281819820404053,8.822381973266602,-0.044708579778671265
1707663729624068000,8.336068115234376,4.281734466552734,8.822429656982422,-0.04329637810587883
1707663729634068000,8.34606787109375,4.284071445465088,8.821273803710938,-0.04733159765601158
1707663729644068000,8.356068115234375,4.285701751708984,8.820487976074219,-0.04637676849961281
1707663729654068000,8.36606787109375,4.28490686416626,8.820874214172363,-0.046219583600759506
1707663729664068000,8.376068115234375,4.283157825469971,8.821736335754395,-0.04372428357601166
1707663729674068000,8.38606787109375,4.282646179199219,8.821971893310547,-0.04653938114643097
1707663729684068000,8.396068115234375,4.28358268737793,8.821524620056152,-0.04489096626639366
1707663729694068000,8.40606787109375,4.2849507331848145,8.820854187011719,-0.04599509760737419
1707663729704068000,8.416068115234374,4.284900665283203,8.820884704589844,-0.04486990347504616
1707663729714068000,8.42606787109375,4.284094333648682,8.821283340454102,-0.04321509599685669
1707663729724068000,8.436068115234375,4.283199310302734,8.82171630859375,-0.04378499463200569
1707663729734068000,8.44606787109375,4.283494472503662,8.821590423583984,-0.03992811217904091
1707663729744068000,8.456068115234375,4.2858757972717285,8.82042121887207,-0.042705755680799484
1707663729754068000,8.46606787109375,4.285816192626953,8.820454597473145,-0.04189813509583473
1707663729764068000,8.476068115234375,4.284965515136719,8.820868492126465,-0.04165929555892944
1707663729774068000,8.48606787109375,4.284636497497559,8.821035385131836,-0.04028601944446564
1707663729784068000,8.496068115234374,4.2848358154296875,8.82093334197998,-0.04130164906382561
1707663729794068000,8.50606787109375,4.285708904266357,8.820515632629395,-0.03984043002128601
1707663729804068000,8.516068115234376,4.285750389099121,8.820487022399902,-0.041633203625679016
1707663729814068000,8.52606787109375,4.285533905029297,8.82060718536377,-0.03835327923297882
1707663729824068000,8.536068115234375,4.28446626663208,8.821109771728516,-0.04204075038433075
1707663729834068000,8.54606787109375,4.283936500549316,8.821380615234375,-0.03906235471367836
1707663729844068000,8.556068115234375,4.2840895652771,8.821295738220215,-0.041031695902347565
1707663729854068000,8.56606787109375,4.285337448120117,8.820704460144043,-0.037811245769262314
1707663729864068000,8.576068115234374,4.285989761352539,8.820378303527832,-0.04015253484249115
1707663729874068000,8.58606787109375,4.285612106323242,8.820563316345215,-0.039729323238134384
1707663729884068000,8.596068115234376,4.284863471984863,8.820918083190918,-0.04174366593360901
1707663729894068000,8.60606787109375,4.284440994262695,8.821121215820312,-0.042150795459747314
1707663729904068000,8.616068115234375,4.284555912017822,8.821056365966797,-0.04401272535324097
1707663729914068000,8.62606787109375,4.284355163574219,8.821148872375488,-0.045008644461631775
1707663729924068000,8.636068115234375,4.283219337463379,8.821701049804688,-0.044902145862579346
1707663729934068000,8.64606787109375,4.2834954261779785,8.821566581726074,-0.0449722558259964
1707663729944068000,8.656068115234374,4.284618377685547,8.821014404296875,-0.046151936054229736
1707663729954068000,8.66606787109375,4.286301612854004,8.820182800292969,-0.048739831894636154
1707663729964068000,8.676068115234376,4.286012172698975,8.82033920288086,-0.04577788710594177
1707663729974068000,8.68606787109375,4.286031723022461,8.820310592651367,-0.049320418387651443
1707663729984068000,8.696068115234375,4.283784866333008,8.821410179138184,-0.04779241606593132
1707663729994068000,8.70606787109375,4.282651424407959,8.821953773498535,-0.04911361262202263
1707663730004068000,8.716068115234375,4.283984661102295,8.82130241394043,-0.04995964467525482
1707663730014068000,8.72606787109375,4.285198211669922,8.820708274841309,-0.05059659481048584
1707663730024068000,8.736068115234374,4.286439895629883,8.820110321044922,-0.04967137798666954
1707663730034068000,8.74606787109375,4.285752773284912,8.820441246032715,-0.050195686519145966
1707663730044068000,8.756068115234376,4.284358501434326,8.821121215820312,-0.049895379692316055
1707663730054068000,8.76606787109375,4.2833943367004395,8.821564674377441,-0.05403047055006027
1707663730064068000,8.776068115234375,4.283299922943115,8.821630477905273,-0.05049195885658264
1707663730074068000,8.78606787109375,4.283627510070801,8.821473121643066,-0.050399020314216614
1707663730084068000,8.796068115234375,4.28460693359375,8.821022033691406,-0.045676179230213165
1707663730094068000,8.80606787109375,4.285286903381348,8.820667266845703,-0.05037449300289154
1707663730104068000,8.816068115234375,4.286031723022461,8.820307731628418,-0.049865178763866425
1707663730114068000,8.82606787109375,4.286380767822266,8.82011890411377,-0.053167711943387985
1707663730124068000,8.836068115234376,4.286049842834473,8.820294380187988,-0.05062110722064972
1707663730134068000,8.84606787109375,4.285892009735107,8.820355415344238,-0.053235698491334915
1707663730144068000,8.856068115234375,4.283958435058594,8.821334838867188,-0.046361323446035385
1707663730154068000,8.86606787109375,4.284574031829834,8.821020126342773,-0.049081698060035706
1707663730164068000,8.876068115234375,4.28549337387085,8.82059383392334,-0.04532367363572121
1707663730174068000,8.88606787109375,4.286899089813232,8.8198881149292,-0.04950319603085518
1707663730184068000,8.896068115234375,4.287446975708008,8.8196439743042,-0.045371461659669876
1707663730194068000,8.90606787109375,4.287869930267334,8.819428443908691,-0.04711734876036644
1707663730204068000,8.916068115234374,4.285780906677246,8.820452690124512,-0.04553338512778282
1707663730214068000,8.92606787109375,4.284650802612305,8.8209810256958,-0.04950258135795593
1707663730224068000,8.936068115234375,4.2843852043151855,8.821125984191895,-0.04659460484981537
1707663730234068000,8.94606787109375,4.284708023071289,8.82095718383789,-0.04873446002602577
1707663730244068000,8.956068115234375,4.286256313323975,8.820215225219727,-0.046995051205158234
1707663730254068000,8.96606787109375,4.287448406219482,8.819637298583984,-0.04658452048897743
1707663730264068000,8.976068115234375,4.287557601928711,8.819594383239746,-0.04461362957954407
1707663730274068000,8.98606787109375,4.287189960479736,8.819766998291016,-0.045829981565475464
1707663730284068000,8.996068115234374,4.286848068237305,8.819933891296387,-0.04570436477661133
1707663730294068000,9.00606787109375,4.285667896270752,8.820491790771484,-0.04858506843447685
1707663730304068000,9.016068115234376,4.285742282867432,8.82047176361084,-0.045736219733953476
1707663730314068000,9.02606787109375,4.282522678375244,8.822033882141113,-0.045968782156705856
1707663730324068000,9.036068115234375,4.282766819000244,8.821910858154297,-0.04669345170259476
1707663730334068000,9.04606787109375,4.283660888671875,8.821478843688965,-0.04622150957584381
1707663730344068000,9.056068115234375,4.284270286560059,8.821185111999512,-0.04585111886262894
1707663730354068000,9.06606787109375,4.283671855926514,8.82147216796875,-0.04667853191494942
1707663730364068000,9.076068115234374,4.283445835113525,8.821581840515137,-0.04654259607195854
1707663730374068000,9.08606787109375,4.284038066864014,8.821292877197266,-0.04697224870324135
1707663730384068000,9.096068115234376,4.284270286560059,8.821187019348145,-0.04557951167225838
1707663730394068000,9.10606787109375,4.2834577560424805,8.821564674377441,-0.048651982098817825
1707663730404068000,9.116068115234375,4.282460689544678,8.82204818725586,-0.04898196458816528
1707663730414068000,9.12606787109375,4.282653331756592,8.8219575881958,-0.04833971709012985
1707663730424068000,9.136068115234375,4.284334659576416,8.821146011352539,-0.04724174365401268
1707663730434068000,9.14606787109375,4.286192417144775,8.820232391357422,-0.04925565421581268
1707663730444068000,9.156068115234374,4.286152362823486,8.820258140563965,-0.048394761979579926
1707663730454068000,9.16606787109375,4.284592151641846,8.821004867553711,-0.050134625285863876
1707663730464068000,9.176068115234376,4.282795429229736,8.821887969970703,-0.048391230404376984
1707663730474068000,9.18606787109375,4.2820353507995605,8.822240829467773,-0.05126427486538887
1707663730484068000,9.196068115234375,4.283200263977051,8.82168197631836,-0.05016712099313736
1707663730494068000,9.20606787109375,4.285533905029297,8.820547103881836,-0.050325095653533936
1707663730504068000,9.216068115234375,4.2859392166137695,8.820361137390137,-0.048389628529548645
1707663730514068000,9.22606787109375,4.285567760467529,8.820528030395508,-0.0509958378970623
1707663730524068000,9.236068115234374,4.28427267074585,8.821167945861816,-0.048882290720939636
1707663730534068000,9.24606787109375,4.2844133377075195,8.821093559265137,-0.04998922348022461
1707663730544068000,9.256068115234376,4.284555912017822,8.821024894714355,-0.049825433641672134
1707663730554068000,9.26606787109375,4.28439998626709,8.821099281311035,-0.050140611827373505
1707663730564068000,9.276068115234375,4.283663749694824,8.82146167755127,-0.04909738153219223
1707663730574068000,9.28606787109375,4.283629894256592,8.821481704711914,-0.04857731983065605
1707663730584068000,9.296068115234375,4.284825801849365,8.820900917053223,-0.04874793812632561
1707663730594068000,9.30606787109375,4.28711462020874,8.819786071777344,-0.04902801662683487
1707663730604068000,9.316068115234375,4.287141799926758,8.819780349731445,-0.04762519150972366
1707663730614068000,9.32606787109375,4.286993503570557,8.81984806060791,-0.04837845638394356
1707663730624068000,9.336068115234376,4.285514831542969,8.820565223693848,-0.04867919161915779
1707663730634068000,9.34606787109375,4.2847723960876465,8.820921897888184,-0.04952659085392952
1707663730644068000,9.356068115234375,4.284213542938232,8.821191787719727,-0.04978756606578827
1707663730654068000,9.36606787109375,4.28574800491333,8.820460319519043,-0.04743051528930664
1707663730664068000,9.376068115234375,4.287363529205322,8.819674491882324,-0.04753692075610161
1707663730674068000,9.38606787109375,4.28734827041626,8.819689750671387,-0.04591264948248863
1707663730684068000,9.396068115234375,4.287030220031738,8.81983470916748,-0.04755939170718193
1707663730694068000,9.40606787109375,4.286208629608154,8.82023811340332,-0.04702664539217949
1707663730704068000,9.416068115234374,4.287224769592285,8.819738388061523,-0.0479828380048275
1707663730714068000,9.42606787109375,4.286221981048584,8.820226669311523,-0.04796595498919487
1707663730724068000,9.436068115234375,4.285627365112305,8.820518493652344,-0.047293320298194885
1707663730734068000,9.44606787109375,4.2849812507629395,8.820816993713379,-0.05022336542606354
1707663730744068000,9.456068115234375,4.28474235534668,8.820938110351562,-0.04924081265926361
1707663730754068000,9.46606787109375,4.288661479949951,8.819045066833496,-0.046960897743701935
1707663730764068000,9.476068115234375,4.300551891326904,8.813323974609375,-0.030983151867985725
1707663730774068000,9.48606787109375,4.310564994812012,8.808364868164062,-0.04603772982954979
1707663730784068000,9.496068115234374,4.3039398193359375,8.811579704284668,-0.05054236203432083
1707663730794068000,9.50606787109375,4.298665523529053,8.81417179107666,-0.04718683287501335
1707663730804068000,9.516068115234376,4.293344497680664,8.816783905029297,-0.043552592396736145
1707663730814068000,9.52606787109375,4.289966583251953,8.81840705871582,-0.04765938222408295
1707663730824068000,9.536068115234375,4.287571430206299,8.819572448730469,-0.047556377947330475
1707663730834068000,9.54606787109375,4.292854309082031,8.817014694213867,-0.04529239982366562
1707663730844068000,9.556068115234375,4.297245979309082,8.81480598449707,-0.057090118527412415
1707663730854068000,9.56606787109375,4.298025131225586,8.814478874206543,-0.048345934599637985
1707663730864068000,9.576068115234374,4.298985004425049,8.813989639282227,-0.05201996490359306
1707663730874068000,9.58606787109375,4.298117637634277,8.814432144165039,-0.04868658259510994
1707663730884068000,9.596068115234376,4.299890518188477,8.813566207885742,-0.04875648766756058
1707663730894068000,9.60606787109375,4.303222179412842,8.8119535446167,-0.046163760125637054
1707663730904068000,9.616068115234375,4.302876949310303,8.812111854553223,-0.048260245472192764
1707663730914068000,9.62606787109375,4.302682876586914,8.812222480773926,-0.0452689453959465
1707663730924068000,9.636068115234375,4.305426120758057,8.810845375061035,-0.05183837562799454
1707663730934068000,9.64606787109375,4.30712890625,8.810033798217773,-0.04845297336578369
1707663730944068000,9.656068115234374,4.309606075286865,8.80880355834961,-0.05162213370203972
1707663730954068000,9.66606787109375,4.310750484466553,8.808269500732422,-0.046915244311094284
1707663730964068000,9.676068115234376,4.311405658721924,8.807892799377441,-0.056637950241565704
1707663730974068000,9.68606787109375,4.314424991607666,8.806502342224121,-0.04047248139977455
1707663730984068000,9.696068115234375,4.316773891448975,8.80534553527832,-0.04173367843031883
1707663730994068000,9.70606787109375,4.3159098625183105,8.805770874023438,-0.04139949753880501
1707663731004068000,9.716068115234375,4.317402362823486,8.805021286010742,-0.04514346644282341
1707663731014068000,9.72606787109375,4.316700458526611,8.805365562438965,-0.04500308260321617
1707663731024068000,9.736068115234374,4.314884185791016,8.806255340576172,-0.04523463547229767
1707663731034068000,9.74606787109375,4.314204216003418,8.806571006774902,-0.04837889224290848
1707663731044068000,9.756068115234376,4.314685344696045,8.8063383102417,-0.047784414142370224
1707663731054068000,9.76606787109375,4.314451694488525,8.806459426879883,-0.046532321721315384
1707663731064068000,9.776068115234375,4.312528133392334,8.807400703430176,-0.04658740386366844
1707663731074068000,9.78606787109375,4.311233043670654,8.808040618896484,-0.045557599514722824
1707663731084068000,9.796068115234375,4.309852123260498,8.808720588684082,-0.044806402176618576
1707663731094068000,9.80606787109375,4.309179306030273,8.809057235717773,-0.04330586642026901
1707663731104068000,9.816068115234375,4.310021877288818,8.808643341064453,-0.043557263910770416
1707663731114068000,9.82606787109375,4.309953689575195,8.808676719665527,-0.04359425976872444
1707663731124068000,9.836068115234376,4.308669090270996,8.80930233001709,-0.0442468523979187
1707663731134068000,9.84606787109375,4.307150840759277,8.81004810333252,-0.04339725524187088
1707663731144068000,9.856068115234375,4.306008815765381,8.8106050491333,-0.04388183727860451
1707663731154068000,9.86606787109375,4.305020809173584,8.811081886291504,-0.04496688023209572
1707663731164068000,9.876068115234375,4.304593086242676,8.811302185058594,-0.04253134876489639
1707663731174068000,9.88606787109375,4.304310321807861,8.811446189880371,-0.041352588683366776
1707663731184068000,9.896068115234375,4.303850173950195,8.811666488647461,-0.04240163788199425
1707663731194068000,9.90606787109375,4.304166793823242,8.811514854431152,-0.041734229773283005
1707663731204068000,9.916068115234374,4.304460048675537,8.811375617980957,-0.04107086732983589
1707663731214068000,9.92606787109375,4.30380916595459,8.811692237854004,-0.04114547371864319
1707663731224068000,9.936068115234375,4.302775859832764,8.812192916870117,-0.04196939617395401
1707663731234068000,9.94606787109375,4.302703380584717,8.812232971191406,-0.041194505989551544
1707663731244068000,9.956068115234375,4.302831649780273,8.812161445617676,-0.042703691869974136
1707663731254068000,9.96606787109375,4.303261756896973,8.811954498291016,-0.04222947731614113
1707663731264068000,9.976068115234375,4.3038458824157715,8.811663627624512,-0.043370168656110764
1707663731274068000,9.98606787109375,4.3046674728393555,8.811262130737305,-0.043516650795936584
1707663731284068000,9.996068115234374,4.305324077606201,8.810946464538574,-0.04246286302804947
1707663731294068000,10.00606787109375,4.306307315826416,8.81045913696289,-0.043662894517183304
1707663731304068000,10.016068115234376,4.306292533874512,8.810466766357422,-0.04353291168808937
1707663731314068000,10.02606787109375,4.306117057800293,8.810554504394531,-0.042984962463378906
1707663731324068000,10.036068115234375,4.306256294250488,8.81048583984375,-0.04347722977399826
1707663731334068000,10.04606787109375,4.306425094604492,8.810399055480957,-0.04425007104873657
1707663731344068000,10.056068115234375,4.3069539070129395,8.810139656066895,-0.04452227056026459
1707663731354068000,10.06606787109375,4.307384490966797,8.809927940368652,-0.04452601075172424
1707663731364068000,10.076068115234374,4.307446479797363,8.809893608093262,-0.04549960047006607
1707663731374068000,10.08606787109375,4.307518482208252,8.809854507446289,-0.046055007725954056
1707663731384068000,10.096068115234376,4.308307647705078,8.809469223022461,-0.046388570219278336
1707663731394068000,10.10606787109375,4.307855129241943,8.809686660766602,-0.04696473851799965
1707663731404068000,10.116068115234375,4.306385040283203,8.810403823852539,-0.0471220389008522
1707663731414068000,10.12606787109375,4.304592132568359,8.811274528503418,-0.04802144691348076
1707663731424068000,10.136068115234375,4.302737236022949,8.812189102172852,-0.046560049057006836
1707663731434068000,10.14606787109375,4.302062511444092,8.81251049041748,-0.04808614403009415
1707663731444068000,10.156068115234374,4.3027520179748535,8.812179565429688,-0.0471472293138504
1707663731454068000,10.16606787109375,4.303184509277344,8.811966896057129,-0.04725906625390053
1707663731464068000,10.176068115234376,4.302472114562988,8.81231689453125,-0.046728454530239105
1707663731474068000,10.18606787109375,4.301320552825928,8.812880516052246,-0.04648394137620926
1707663731484068000,10.196068115234375,4.30027437210083,8.813393592834473,-0.04583941400051117
1707663731494068000,10.20606787109375,4.299771308898926,8.813636779785156,-0.0465133860707283
1707663731504068000,10.216068115234375,4.299357891082764,8.813835144042969,-0.047169316560029984
1707663731514068000,10.22606787109375,4.299002647399902,8.814009666442871,-0.0468469113111496
1707663731524068000,10.236068115234374,4.2984299659729,8.81428337097168,-0.048028431832790375
1707663731534068000,10.24606787109375,4.29818058013916,8.81440544128418,-0.04787543788552284
1707663731544068000,10.256068115234376,4.299109935760498,8.813956260681152,-0.047088731080293655
1707663731554068000,10.26606787109375,4.299813747406006,8.813610076904297,-0.04743899032473564
1707663731564068000,10.276068115234375,4.2999162673950195,8.813570976257324,-0.04552614688873291
1707663731574068000,10.28606787109375,4.29978084564209,8.813640594482422,-0.04495302587747574
1707663731584068000,10.296068115234375,4.299108505249023,8.813972473144531,-0.044206056743860245
1707663731594068000,10.30606787109375,4.298625946044922,8.814205169677734,-0.04460527375340462
1707663731604068000,10.316068115234375,4.29896879196167,8.814035415649414,-0.04499610513448715
1707663731614068000,10.32606787109375,4.299190044403076,8.81393051147461,-0.044505152851343155
1707663731624068000,10.336068115234376,4.2991461753845215,8.813945770263672,-0.045716091990470886
1707663731634068000,10.34606787109375,4.299188137054443,8.81392765045166,-0.04516308754682541
1707663731644068000,10.356068115234375,4.299344539642334,8.813850402832031,-0.04525288939476013
1707663731654068000,10.36606787109375,4.299977779388428,8.813546180725098,-0.04442553222179413
1707663731664068000,10.376068115234375,4.300836563110352,8.813128471374512,-0.044302187860012054
1707663731674068000,10.38606787109375,4.30141019821167,8.812849044799805,-0.043997056782245636
1707663731684068000,10.396068115234375,4.300772666931152,8.81316089630127,-0.044043559581041336
1707663731694068000,10.40606787109375,4.299775123596191,8.813644409179688,-0.044608596712350845
1707663731704068000,10.416068115234374,4.299673080444336,8.81369686126709,-0.04430176690220833
1707663731714068000,10.42606787109375,4.300073146820068,8.813494682312012,-0.04552172124385834
1707663731724068000,10.436068115234375,4.300668239593506,8.813199996948242,-0.04620350897312164
1707663731734068000,10.44606787109375,4.301239013671875,8.812925338745117,-0.045612454414367676
1707663731744068000,10.456068115234375,4.300549030303955,8.813260078430176,-0.04604319483041763
1707663731754068000,10.46606787109375,4.299842834472656,8.813608169555664,-0.04529561474919319
1707663731764068000,10.476068115234375,4.299886226654053,8.81358528137207,-0.0456964485347271
1707663731774068000,10.48606787109375,4.299983024597168,8.813538551330566,-0.04537247121334076
1707663731784068000,10.496068115234374,4.300543785095215,8.813262939453125,-0.04597179964184761
1707663731794068000,10.50606787109375,4.300058364868164,8.813499450683594,-0.04588141664862633
1707663731804068000,10.516068115234376,4.298360824584961,8.81432819366455,-0.045816436409950256
1707663731814068000,10.52606787109375,4.297114372253418,8.81493091583252,-0.04680594429373741
1707663731824068000,10.536068115234375,4.2971014976501465,8.81493854522705,-0.046365778893232346
1707663731834068000,10.54606787109375,4.2978739738464355,8.814563751220703,-0.04605315253138542
1707663731844068000,10.556068115234375,4.298003673553467,8.814498901367188,-0.046381935477256775
1707663731854068000,10.56606787109375,4.296926021575928,8.815025329589844,-0.04639757052063942
1707663731864068000,10.576068115234374,4.296078205108643,8.815437316894531,-0.046529240906238556
1707663731874068000,10.58606787109375,4.295831203460693,8.815561294555664,-0.045738860964775085
1707663731884068000,10.596068115234376,4.295823574066162,8.815558433532715,-0.04724762588739395
1707663731894068000,10.60606787109375,4.296004295349121,8.815469741821289,-0.04721580073237419
1707663731904068000,10.616068115234375,4.295496463775635,8.815716743469238,-0.047271497547626495
1707663731914068000,10.62606787109375,4.294972896575928,8.815973281860352,-0.04705481603741646
1707663731924068000,10.636068115234375,4.294619560241699,8.816147804260254,-0.04642542451620102
1707663731934068000,10.64606787109375,4.294693470001221,8.81611442565918,-0.046032000333070755
1707663731944068000,10.656068115234374,4.295231342315674,8.8158540725708,-0.04560144990682602
1707663731954068000,10.66606787109375,4.295731544494629,8.815618515014648,-0.04410625994205475
1707663731964068000,10.676068115234376,4.295891284942627,8.815535545349121,-0.04527962580323219
1707663731974068000,10.68606787109375,4.295997142791748,8.815485000610352,-0.04501287266612053
1707663731984068000,10.696068115234375,4.296056270599365,8.815447807312012,-0.04652338847517967
1707663731994068000,10.70606787109375,4.295993804931641,8.815481185913086,-0.04608352482318878
1707663732004068000,10.716068115234375,4.295693874359131,8.815624237060547,-0.046686820685863495
1707663732014068000,10.72606787109375,4.29551362991333,8.815707206726074,-0.04752828925848007
1707663732024068000,10.736068115234374,4.2958903312683105,8.815534591674805,-0.04536385461688042
1707663732034068000,10.74606787109375,4.296458721160889,8.815258026123047,-0.045327432453632355
1707663732044068000,10.756068115234376,4.296996593475342,8.8149995803833,-0.04446422681212425
1707663732054068000,10.76606787109375,4.297248363494873,8.814878463745117,-0.0442519374191761
1707663732064068000,10.776068115234375,4.297265529632568,8.814870834350586,-0.04418441653251648
1707663732074068000,10.78606787109375,4.297109127044678,8.81494140625,-0.04498238489031792
1707663732084068000,10.796068115234375,4.296840667724609,8.815069198608398,-0.045954570174217224
1707663732094068000,10.80606787109375,4.296631813049316,8.815169334411621,-0.046242065727710724
1707663732104068000,10.816068115234375,4.296732425689697,8.815118789672852,-0.04642461612820625
1707663732114068000,10.82606787109375,4.296833515167236,8.815062522888184,-0.047528672963380814
1707663732124068000,10.836068115234376,4.296916961669922,8.815031051635742,-0.04595103859901428
1707663732134068000,10.84606787109375,4.296607494354248,8.815181732177734,-0.046166326850652695
1707663732144068000,10.856068115234375,4.295858860015869,8.815552711486816,-0.04470350965857506
1707663732154068000,10.86606787109375,4.295551300048828,8.815702438354492,-0.0450272262096405
1707663732164068000,10.876068115234375,4.297478199005127,8.814756393432617,-0.046025216579437256
1707663732174068000,10.88606787109375,4.301006317138672,8.813016891479492,-0.049580685794353485
1707663732184068000,10.896068115234375,4.305221080780029,8.810967445373535,-0.047973502427339554
1707663732194068000,10.90606787109375,4.309719085693359,8.808772087097168,-0.04744173213839531
1707663732204068000,10.916068115234374,4.319680690765381,8.803892135620117,-0.047186244279146194
1707663732214068000,10.92606787109375,4.337158679962158,8.795304298400879,-0.04554060474038124
1707663732224068000,10.936068115234375,4.361182689666748,8.783432006835938,-0.04258756339550018
1707663732234068000,10.94606787109375,4.382746696472168,8.772658348083496,-0.04887908324599266
1707663732244068000,10.956068115234375,4.39255952835083,8.767731666564941,-0.051906928420066833
1707663732254068000,10.96606787109375,4.388383865356445,8.769800186157227,-0.055375225841999054
1707663732264068000,10.976068115234375,4.379143238067627,8.77440071105957,-0.058186858892440796
1707663732274068000,10.98606787109375,4.377453804016113,8.775243759155273,-0.05817610025405884
1707663732284068000,10.996068115234374,4.384254455566406,8.771864891052246,-0.055523812770843506
1707663732294068000,11.00606787109375,4.3877105712890625,8.77016544342041,-0.05091433972120285
1707663732304068000,11.016068115234376,4.382730484008789,8.772687911987305,-0.044691432267427444
1707663732314068000,11.02606787109375,4.374185085296631,8.776948928833008,-0.045505672693252563
1707663732324068000,11.036068115234375,4.368191242218018,8.779938697814941,-0.044463202357292175
1707663732334068000,11.04606787109375,4.365148067474365,8.781458854675293,-0.04291461780667305
1707663732344068000,11.056068115234375,4.362659931182861,8.782700538635254,-0.042033467441797256
1707663732354068000,11.06606787109375,4.358827590942383,8.784594535827637,-0.04351213574409485
1707663732364068000,11.076068115234374,4.354012966156006,8.786996841430664,-0.040641721338033676
1707663732374068000,11.08606787109375,4.349623203277588,8.78918743133545,-0.036635685712099075
1707663732384068000,11.096068115234376,4.348658561706543,8.789680480957031,-0.03298000618815422
1707663732394068000,11.10606787109375,4.351495742797852,8.78828239440918,-0.0306305680423975
1707663732404068000,11.116068115234375,4.354681491851807,8.786721229553223,-0.02580873668193817
1707663732414068000,11.12606787109375,4.354984760284424,8.78658676147461,-0.01965275965631008
1707663732424068000,11.136068115234375,4.354168891906738,8.786996841430664,-0.01760030724108219
1707663732434068000,11.14606787109375,4.355000972747803,8.786589622497559,-0.014050373807549477
1707663732444068000,11.156068115234374,4.358744144439697,8.784736633300781,-0.011201518587768078
1707663732454068000,11.16606787109375,4.364499092102051,8.781882286071777,-0.008826330304145813
1707663732464068000,11.176068115234376,4.369962215423584,8.779165267944336,-0.008428377099335194
1707663732474068000,11.18606787109375,4.375105381011963,8.776603698730469,-0.007605233695358038
1707663732484068000,11.196068115234375,4.380410671234131,8.773959159851074,-0.00630702031776309
1707663732494068000,11.20606787109375,4.3861284255981445,8.771103858947754,-0.0029975748620927334
1707663732504068000,11.216068115234375,4.394294261932373,8.767013549804688,-0.004887336399406195
1707663732514068000,11.22606787109375,4.402928829193115,8.76268196105957,-0.004419093485921621
1707663732524068000,11.236068115234374,4.409971237182617,8.759140014648438,-0.004360012710094452
1707663732534068000,11.24606787109375,4.41633939743042,8.755929946899414,-0.005399168934673071
1707663732544068000,11.256068115234376,4.422239780426025,8.752950668334961,-0.007591175846755505
1707663732554068000,11.26606787109375,4.427976131439209,8.75004768371582,-0.008556715212762356
1707663732564068000,11.276068115234375,4.436034202575684,8.745964050292969,-0.009707869961857796
1707663732574068000,11.28606787109375,4.445348739624023,8.741225242614746,-0.015573166310787201
1707663732584068000,11.296068115234375,4.451658725738525,8.738009452819824,-0.017549624666571617
1707663732594068000,11.30606787109375,4.455766201019287,8.735906600952148,-0.02170908823609352
1707663732604068000,11.316068115234375,4.4592719078063965,8.734116554260254,-0.022080235183238983
1707663732614068000,11.32606787109375,4.464476108551025,8.731449127197266,-0.025230921804904938
1707663732624068000,11.336068115234376,4.470916748046875,8.728153228759766,-0.025072887539863586
1707663732634068000,11.34606787109375,4.478422164916992,8.724287033081055,-0.03057132102549076
1707663732644068000,11.356068115234375,4.484695911407471,8.721067428588867,-0.02988855540752411
1707663732654068000,11.36606787109375,4.490743160247803,8.71792984008789,-0.03611142933368683
1707663732664068000,11.376068115234375,4.495521068572998,8.715465545654297,-0.036479122936725616
1707663732674068000,11.38606787109375,4.4994025230407715,8.713432312011719,-0.043153487145900726
1707663732684068000,11.396068115234375,4.5026350021362305,8.711770057678223,-0.041655391454696655
1707663732694068000,11.40606787109375,4.507711410522461,8.709113121032715,-0.04773656651377678
1707663732704068000,11.416068115234374,4.511248588562012,8.707291603088379,-0.045507147908210754
1707663732714068000,11.42606787109375,4.514286041259766,8.705690383911133,-0.0506771095097065
1707663732724068000,11.436068115234375,4.516078472137451,8.70477294921875,-0.04848717525601387
1707663732734068000,11.44606787109375,4.519885540008545,8.702764511108398,-0.05399000272154808
1707663732744068000,11.456068115234375,4.5245747566223145,8.700338363647461,-0.052138883620500565
1707663732754068000,11.46606787109375,4.53040075302124,8.697265625,-0.058496709913015366
1707663732764068000,11.476068115234375,4.534505367279053,8.695157051086426,-0.053758468478918076
1707663732774068000,11.48606787109375,4.5378522872924805,8.693380355834961,-0.05859889090061188
1707663732784068000,11.496068115234374,4.541314601898193,8.691597938537598,-0.05452974885702133
1707663732794068000,11.50606787109375,4.545905590057373,8.689167022705078,-0.05916935205459595
1707663732804068000,11.516068115234376,4.551816940307617,8.686101913452148,-0.05465516075491905
1707663732814068000,11.52606787109375,4.5577921867370605,8.682936668395996,-0.05939329415559769
1707663732824068000,11.536068115234375,4.56287145614624,8.680303573608398,-0.05395621806383133
1707663732834068000,11.54606787109375,4.5675435066223145,8.677824020385742,-0.05743744596838951
1707663732844068000,11.556068115234375,4.573080539703369,8.674947738647461,-0.051095832139253616
1707663732854068000,11.56606787109375,4.578906536102295,8.671857833862305,-0.053615469485521317
1707663732864068000,11.576068115234374,4.585086345672607,8.66862678527832,-0.04780498519539833
1707663732874068000,11.58606787109375,4.590066432952881,8.66597843170166,-0.049998603761196136
1707663732884068000,11.596068115234376,4.594849109649658,8.663467407226562,-0.045476026833057404
1707663732894068000,11.60606787109375,4.598757266998291,8.661382675170898,-0.04766090214252472
1707663732904068000,11.616068115234375,4.604903221130371,8.658143043518066,-0.042463142424821854
1707663732914068000,11.62606787109375,4.6105546951293945,8.655138969421387,-0.041674718260765076
1707663732924068000,11.636068115234375,4.615933895111084,8.652291297912598,-0.037311915308237076
1707663732934068000,11.64606787109375,4.619400501251221,8.650443077087402,-0.03702190890908241
1707663732944068000,11.656068115234374,4.622599124908447,8.648744583129883,-0.034298088401556015
1707663732954068000,11.66606787109375,4.625882148742676,8.646993637084961,-0.03330748528242111
1707663732964068000,11.676068115234376,4.62916374206543,8.645242691040039,-0.031672149896621704
1707663732974068000,11.68606787109375,4.631668567657471,8.64390754699707,-0.029774058610200882
1707663732984068000,11.696068115234375,4.634182453155518,8.642563819885254,-0.028963761404156685
1707663732994068000,11.70606787109375,4.636161804199219,8.641510963439941,-0.026076914742588997
1707663733004068000,11.716068115234375,4.638113021850586,8.640462875366211,-0.026306312531232834
1707663733014068000,11.72606787109375,4.640307426452637,8.639293670654297,-0.023500710725784302
1707663733024068000,11.736068115234374,4.642836570739746,8.637932777404785,-0.023870330303907394
1707663733034068000,11.74606787109375,4.6450395584106445,8.63675594329834,-0.021142898127436638
1707663733044068000,11.756068115234376,4.646927833557129,8.635735511779785,-0.022463560104370117
1707663733054068000,11.76606787109375,4.6489973068237305,8.63463020324707,-0.01923074573278427
1707663733064068000,11.776068115234375,4.651268482208252,8.633403778076172,-0.02081824280321598
1707663733074068000,11.78606787109375,4.6539130210876465,8.63198471069336,-0.01787302829325199
1707663733084068000,11.796068115234375,4.656343460083008,8.63066577911377,-0.021656444296240807
1707663733094068000,11.80606787109375,4.659083843231201,8.629191398620605,-0.01982126012444496
1707663733104068000,11.816068115234375,4.661451816558838,8.627903938293457,-0.02310999482870102
1707663733114068000,11.82606787109375,4.663885593414307,8.626593589782715,-0.02105778269469738
1707663733124068000,11.836068115234376,4.6664252281188965,8.625210762023926,-0.024393100291490555
1707663733134068000,11.84606787109375,4.669976711273193,8.623295783996582,-0.021921776235103607
1707663733144068000,11.856068115234375,4.673001289367676,8.6216459274292,-0.02598385140299797
1707663733154068000,11.86606787109375,4.675708770751953,8.620180130004883,-0.025482218712568283
1707663733164068000,11.876068115234375,4.676812171936035,8.619565963745117,-0.029896823689341545
1707663733174068000,11.88606787109375,4.678223133087158,8.618803024291992,-0.02922818809747696
1707663733184068000,11.896068115234375,4.680059909820557,8.617791175842285,-0.03325160592794418
1707663733194068000,11.90606787109375,4.682056427001953,8.616708755493164,-0.03257226571440697
1707663733204068000,11.916068115234374,4.682229995727539,8.61660099029541,-0.03597470000386238
1707663733214068000,11.92606787109375,4.681657314300537,8.616914749145508,-0.03548916429281235
1707663733224068000,11.936068115234375,4.680889129638672,8.617315292358398,-0.03932001069188118
1707663733234068000,11.94606787109375,4.681553363800049,8.61695384979248,-0.039424967020750046
1707663733244068000,11.956068115234375,4.682830810546875,8.61624813079834,-0.041828785091638565
1707663733254068000,11.96606787109375,4.683732509613037,8.615761756896973,-0.04107712581753731
1707663733264068000,11.976068115234375,4.682852268218994,8.616233825683594,-0.04243673011660576
1707663733274068000,11.98606787109375,4.682986736297607,8.616168022155762,-0.04106682911515236
1707663733284068000,11.996068115234374,4.68419885635376,8.615508079528809,-0.041113391518592834
1707663733294068000,12.00606787109375,4.685298919677734,8.614914894104004,-0.040185991674661636
1707663733304068000,12.016068115234376,4.685122966766357,8.615006446838379,-0.04092705249786377
1707663733314068000,12.02606787109375,4.68497896194458,8.615089416503906,-0.04006299376487732
1707663733324068000,12.036068115234375,4.684911727905273,8.615130424499512,-0.03888920694589615
1707663733334068000,12.04606787109375,4.686346530914307,8.61435604095459,-0.037643224000930786
1707663733344068000,12.056068115234375,4.687652587890625,8.613651275634766,-0.03602168709039688
1707663733354068000,12.06606787109375,4.688830375671387,8.613012313842773,-0.035859428346157074
1707663733364068000,12.076068115234374,4.689205646514893,8.612812042236328,-0.034754589200019836
1707663733374068000,12.08606787109375,4.690291404724121,8.612218856811523,-0.034979525953531265
1707663733384068000,12.096068115234376,4.691646099090576,8.611483573913574,-0.034257322549819946
1707663733394068000,12.10606787109375,4.693520545959473,8.610465049743652,-0.03376339003443718
1707663733404068000,12.116068115234375,4.694143295288086,8.610129356384277,-0.03284687176346779
1707663733414068000,12.12606787109375,4.694620132446289,8.609877586364746,-0.030729439109563828
1707663733424068000,12.136068115234375,4.6967668533325195,8.608716011047363,-0.02782987430691719
1707663733434068000,12.14606787109375,4.700088977813721,8.606907844543457,-0.026248984038829803
1707663733444068000,12.156068115234374,4.701842784881592,8.605951309204102,-0.025720952078700066
1707663733454068000,12.16606787109375,4.70340633392334,8.605094909667969,-0.026163224130868912
1707663733464068000,12.176068115234376,4.704741477966309,8.60436725616455,-0.025731924921274185
1707663733474068000,12.18606787109375,4.706149578094482,8.603596687316895,-0.025917422026395798
1707663733484068000,12.196068115234375,4.706866264343262,8.603206634521484,-0.025418775156140327
1707663733494068000,12.20606787109375,4.708617687225342,8.602248191833496,-0.025190362706780434
1707663733504068000,12.216068115234375,4.7100348472595215,8.601476669311523,-0.023550644516944885
1707663733514068000,12.22606787109375,4.710851192474365,8.601032257080078,-0.022896375507116318
1707663733524068000,12.236068115234374,4.710478782653809,8.601240158081055,-0.02077651023864746
1707663733534068000,12.24606787109375,4.71103048324585,8.600934982299805,-0.022096822038292885
1707663733544068000,12.256068115234376,4.711833477020264,8.600494384765625,-0.022479942068457603
1707663733554068000,12.26606787109375,4.713425636291504,8.599617958068848,-0.023868385702371597
1707663733564068000,12.276068115234375,4.713305950164795,8.599686622619629,-0.022961845621466637
1707663733574068000,12.28606787109375,4.713332176208496,8.599665641784668,-0.02528510056436062
1707663733584068000,12.296068115234375,4.712836265563965,8.59993839263916,-0.024622518569231033
1707663733594068000,12.30606787109375,4.712351322174072,8.600203514099121,-0.025190215557813644
1707663733604068000,12.316068115234375,4.711629390716553,8.600603103637695,-0.023681122809648514
1707663733614068000,12.32606787109375,4.7128825187683105,8.599905967712402,-0.02721957303583622
1707663733624068000,12.336068115234376,4.714120864868164,8.599224090576172,-0.028424983844161034
1707663733634068000,12.34606787109375,4.715751647949219,8.59831714630127,-0.03190278261899948
1707663733644068000,12.356068115234375,4.715725421905518,8.598332405090332,-0.03173712268471718
1707663733654068000,12.36606787109375,4.71566104888916,8.598353385925293,-0.03536072000861168
1707663733664068000,12.376068115234375,4.716037750244141,8.59814739227295,-0.03506140038371086
1707663733674068000,12.38606787109375,4.718019962310791,8.597044944763184,-0.03867219015955925
1707663733684068000,12.396068115234375,4.719780445098877,8.596078872680664,-0.03847881034016609
1707663733694068000,12.40606787109375,4.722479820251465,8.594566345214844,-0.04481589049100876
1707663733704068000,12.416068115234374,4.7235260009765625,8.593995094299316,-0.04410210996866226
1707663733714068000,12.42606787109375,4.724732398986816,8.593310356140137,-0.04817749559879303
1707663733724068000,12.436068115234375,4.725790977478027,8.592735290527344,-0.04669417068362236
1707663733734068000,12.44606787109375,4.72917366027832,8.590849876403809,-0.051019154489040375
1707663733744068000,12.456068115234375,4.731809616088867,8.589422225952148,-0.046901900321245193
1707663733754068000,12.46606787109375,4.733056545257568,8.588713645935059,-0.05069155991077423
1707663733764068000,12.476068115234375,4.731518745422363,8.58957290649414,-0.04846430569887161
1707663733774068000,12.48606787109375,4.731016159057617,8.589816093444824,-0.05413009598851204
1707663733784068000,12.496068115234374,4.732466697692871,8.589046478271484,-0.049430981278419495
1707663733794068000,12.50606787109375,4.736540794372559,8.586782455444336,-0.052368104457855225
1707663733804068000,12.516068115234376,4.739306926727295,8.585274696350098,-0.04928646981716156
1707663733814068000,12.52606787109375,4.740536689758301,8.584566116333008,-0.05401900038123131
1707663733824068000,12.536068115234375,4.739814281463623,8.58499526977539,-0.048820190131664276
1707663733834068000,12.54606787109375,4.739747047424316,8.5850191116333,-0.05128418654203415
1707663733844068000,12.556068115234375,4.740991592407227,8.584355354309082,-0.047302208840847015
1707663733854068000,12.56606787109375,4.743724822998047,8.582820892333984,-0.051274437457323074
1707663733864068000,12.576068115234374,4.743843078613281,8.582781791687012,-0.04686623811721802
1707663733874068000,12.58606787109375,4.742137432098389,8.58371353149414,-0.04876737296581268
1707663733884068000,12.596068115234376,4.739404201507568,8.585258483886719,-0.04207700863480568
1707663733894068000,12.60606787109375,4.738232135772705,8.585897445678711,-0.04370887950062752
1707663733904068000,12.616068115234375,4.738542079925537,8.585760116577148,-0.03678533434867859
1707663733914068000,12.62606787109375,4.739073276519775,8.58545207977295,-0.03971444070339203
1707663733924068000,12.636068115234375,4.737290382385254,8.58646011352539,-0.03434692323207855
1707663733934068000,12.64606787109375,4.734882354736328,8.587777137756348,-0.03696027770638466
1707663733944068000,12.656068115234374,4.731649875640869,8.589585304260254,-0.030171625316143036
1707663733954068000,12.66606787109375,4.7292070388793945,8.590921401977539,-0.03260241821408272
1707663733964068000,12.676068115234376,4.7269744873046875,8.592172622680664,-0.02565157786011696
1707663733974068000,12.68606787109375,4.726662635803223,8.59233570098877,-0.028449492529034615
1707663733984068000,12.696068115234375,4.726673603057861,8.592352867126465,-0.020702604204416275
1707663733994068000,12.70606787109375,4.727088451385498,8.59211254119873,-0.024958590045571327
