time,seconds_elapsed,z,y,x
1707663721348572700,0.06057275390625,0.28405213356018066,0.7452550530433655,-1.3518437147140503
1707663721365419000,0.0774189453125,-0.11056652665138245,0.5027416944503784,-1.3451242446899414
1707663721382265300,0.094265380859375,-0.06230820715427399,0.7018836140632629,-1.4624103307724
1707663721399111400,0.111111328125,0.014660755172371864,0.41905322670936584,-1.5015056133270264
1707663721415957800,0.127957763671875,0.03787361457943916,0.7696896195411682,-1.361006736755371
1707663721432804000,0.14480419921875,-0.017715077847242355,1.1533126831054688,-0.9553925395011902
1707663721449650200,0.161650146484375,-0.09346231073141098,1.117882490158081,-0.24495677649974823
1707663721466496500,0.17849658203125,0.06963858753442764,0.8619301915168762,0.5198459029197693
1707663721483342800,0.1953427734375,0.4410443603992462,0.9450078010559082,1.1313215494155884
1707663721500189200,0.212189208984375,0.7428115606307983,1.3292417526245117,1.5650355815887451
1707663721517035300,0.22903515625,1.018311619758606,1.7849469184875488,1.907119870185852
1707663721533881600,0.245881591796875,1.598022222518921,1.5601485967636108,1.9730932712554932
1707663721550728000,0.26272802734375,1.9620976448059082,1.1698060035705566,1.5711442232131958
1707663721567574300,0.27957421875,1.92666757106781,1.5045599937438965,1.1435388326644897
1707663721584420400,0.29642041015625,1.7012584209442139,2.1807873249053955,0.8723149299621582
1707663721601266700,0.3132666015625,1.3567306995391846,2.3206753730773926,0.8020654320716858
1707663721618113000,0.330113037109375,1.1606431007385254,1.9584324359893799,0.841160774230957
1707663721634959400,0.34695947265625,1.2498292922973633,1.970038890838623,0.7806851863861084
1707663721651805400,0.363805419921875,1.4074324369430542,2.0854923725128174,0.5247328281402588
1707663721668651800,0.38065185546875,1.4801253080368042,1.8747440576553345,0.0256563201546669
1707663721685498000,0.397498046875,1.655443549156189,1.4367539882659912,-0.3127627670764923
1707663721702344400,0.414344482421875,1.830150842666626,1.1643083095550537,-0.2932150959968567
1707663721719190500,0.4311904296875,1.6224569082260132,1.2449424266815186,0.02260199747979641
1707663721736036900,0.448036865234375,1.0238093137741089,1.0512982606887817,0.5406153202056885
1707663721752883200,0.46488330078125,0.20158538222312927,1.2418880462646484,1.1826342344284058
1707663721769729500,0.4817294921875,-0.3500255048274994,1.6896519660949707,1.7592905759811401
1707663721786576000,0.498575927734375,-0.48991355299949646,0.9297361969947815,2.0628902912139893
1707663721803422200,0.515422119140625,-0.2162461280822754,0.08796452730894089,2.212552309036255
1707663721820268300,0.532268310546875,0.37140578031539917,0.33108872175216675,2.1673481464385986
1707663721837114600,0.549114501953125,0.759304940700531,0.4618137776851654,1.915061116218567
1707663721853961000,0.5659609375,0.8179479241371155,0.29077163338661194,1.7122539281845093
1707663721870807300,0.582807373046875,0.4673115611076355,-0.5613847374916077,1.499062180519104
1707663721887653600,0.599653564453125,-0.01588248461484909,-0.573602020740509,1.4538581371307373
1707663721904500000,0.6165,-0.29504770040512085,-0.050090912729501724,1.3933825492858887
1707663721921346300,0.63334619140625,-0.2626718580722809,0.2162461280822754,1.1991275548934937
1707663721938192600,0.650192626953125,0.09407317638397217,0.3341430425643921,1.18446683883667
1707663721955038700,0.667038818359375,0.36224281787872314,0.2101374864578247,1.2907572984695435
1707663721971885000,0.683885009765625,0.4153880476951599,0.21319180727005005,1.505781650543213
1707663721988731400,0.7007314453125,0.35735589265823364,0.4153880476951599,1.7721186876296997
1707663722005577700,0.71757763671875,0.337808221578598,0.4557051360607147,1.8515311479568481
1707663722022424000,0.734424072265625,0.4459312856197357,0.22235478460788727,1.7220277786254883
1707663722039270400,0.7512705078125,0.4013381600379944,-0.5705476999282837,1.5265511274337769
1707663722056116700,0.76811669921875,0.21502439677715302,-0.7195987105369568,1.426369309425354
1707663722072963000,0.784963134765625,0.11606431007385254,-0.6389645338058472,1.416595458984375
1707663722089809400,0.801809326171875,0.19669845700263977,-0.7648026943206787,1.2877029180526733
1707663722106655700,0.81865576171875,0.018325943499803543,-1.0293071269989014,0.9413426518440247
1707663722123502000,0.835502197265625,-0.6407971382141113,-0.870482325553894,0.5381718873977661
1707663722140348400,0.852348388671875,-1.0164790153503418,-0.9468404054641724,-0.010995565913617611
1707663722157194800,0.86919482421875,-0.7293725609779358,-1.1856884956359863,-0.4880809485912323
1707663722174041000,0.886041015625,-0.16187916696071625,-1.1319323778152466,-0.7318159937858582
1707663722190887400,0.902887451171875,-0.5980366468429565,-1.2974767684936523,-0.7165443897247314
1707663722207733500,0.9197333984375,-1.117882490158081,-1.6975932121276855,-0.4459312856197357
1707663722224580000,0.936580078125,-0.8894191384315491,-1.4874557256698608,-0.38850998878479004
1707663722241426400,0.953426513671875,-0.2315177470445633,-1.4196497201919556,-0.4068359434604645
1707663722258272500,0.9702724609375,0.164322629570961,-1.1985167264938354,-0.2932150959968567
1707663722275119000,0.987119140625,0.3042106628417969,-1.025641918182373,-0.12461641430854797
1707663722291965400,1.00396533203125,0.48441576957702637,-0.8533781170845032,-0.1441640853881836
1707663722308811800,1.020811767578125,0.8955277800559998,-0.6017017960548401,-0.15088360011577606
1707663722325658000,1.037658203125,1.2681553363800049,-0.2919933497905731,0.002443459117785096
1707663722342504400,1.05450439453125,1.3530654907226562,-0.4471530318260193,0.3494146466255188
1707663722359350800,1.071350830078125,1.053130865097046,-0.3897317349910736,0.5925388336181641
1707663722376197000,1.088197021484375,0.7024945020675659,-0.4422661066055298,0.6151408553123474
1707663722393043500,1.10504345703125,0.4673115611076355,-0.4276053309440613,0.5381718873977661
1707663722409889800,1.121889892578125,0.010384701192378998,-0.4673115611076355,0.35735589265823364
1707663722426736000,1.138736083984375,-0.48075059056282043,-0.4373791813850403,0.1539379209280014
1707663722443582500,1.15558251953125,-0.5858193039894104,-0.30054548382759094,-0.08491020649671555
1707663722460428800,1.1724287109375,-0.43982264399528503,-0.22357651591300964,-0.35124725103378296
1707663722477275100,1.189275146484375,-0.23029601573944092,-0.16615521907806396,-0.6334667801856995
1707663722494121500,1.20612158203125,0.11056652665138245,-0.25350889563560486,-0.7244856357574463
1707663722510967800,1.2229677734375,0.39400777220726013,-0.29993459582328796,-0.6096430420875549
1707663722527814100,1.239814208984375,0.5369501113891602,-0.40927940607070923,-0.2657261788845062
1707663722544660500,1.256660400390625,0.5369501113891602,-0.4269944727420807,0.03543015569448471
1707663722561507000,1.273507080078125,0.45998117327690125,-0.4679224193096161,-0.010384701192378998
1707663722578353400,1.290353515625,0.23945899307727814,-0.5326740741729736,-0.08368847519159317
1707663722595199700,1.30719970703125,-0.05558869615197182,-0.6731730103492737,-0.07819069176912308
1707663722612046000,1.324046142578125,-0.20341797173023224,-0.7055488228797913,-0.01649334840476513
1707663722628892400,1.340892333984375,-0.05803215503692627,-0.6817250847816467,0.0824667438864708
1707663722645738800,1.35773876953125,0.1997527778148651,-0.4214966893196106,-0.010384701192378998
1707663722662585300,1.37458544921875,0.38789913058280945,-0.4263836145401001,0.2510654330253601
1707663722679431700,1.391431640625,0.21380266547203064,-0.5149590373039246,0.4404335021972656
1707663722696278000,1.408278076171875,-0.002443459117785096,-0.6108647584915161,0.5009090900421143
1707663722713124400,1.425124267578125,0.1649334877729416,-0.3329212963581085,0.11056652665138245
1707663722729970700,1.441970703125,0.03481929376721382,-0.3329212963581085,0.08796452730894089
1707663722746817000,1.458817138671875,0.029932374134659767,-0.2009745091199875,0.18387030065059662
1707663722763663600,1.47566357421875,-0.03543015569448471,-0.25900667905807495,0.1698204129934311
1707663722780510000,1.492510009765625,-0.06963858753442764,-0.2724456787109375,0.15577052533626556
1707663722797356300,1.509356201171875,-0.08918625861406326,-0.13011419773101807,0.11362084746360779
1707663722814202600,1.52620263671875,-0.056199558079242706,-0.14782927930355072,0.08613193035125732
1707663722831049000,1.543049072265625,-0.15210533142089844,-0.24923282861709595,0.06230820715427399
1707663722847895600,1.5598955078125,-0.19669845700263977,-0.29993459582328796,0.000610864779446274
1707663722864742000,1.576741943359375,-0.14294235408306122,-0.20463970303535461,-0.1282816082239151
1707663722881588200,1.593588134765625,-0.19181154668331146,-0.1740964651107788,-0.3017672002315521
1707663722898434600,1.6104345703125,-0.10018182545900345,-0.11545344442129135,-0.3854556679725647
1707663722915281000,1.627281005859375,-0.003665188793092966,-0.12400554865598679,-0.3121519088745117
1707663722932127500,1.64412744140625,0.029932374134659767,0.05803215503692627,-0.16737695038318634
1707663722948973800,1.660973876953125,0.36163195967674255,0.02626718580722809,-0.09529490768909454
1707663722965820200,1.677820068359375,0.3274235129356384,-0.001832594396546483,-0.053756099194288254
1707663722982666800,1.694666748046875,0.24984370172023773,-0.01649334840476513,-0.06047561392188072
1707663722999513000,1.71151318359375,0.17776164412498474,0,-0.05253437161445618
1707663723016359400,1.728359375,0.1441640853881836,0.0360410213470459,-0.13561198115348816
1707663723033205800,1.745205810546875,0.0818558782339096,0.023212861269712448,-0.17531819641590118
1707663723050052400,1.76205224609375,0.023212861269712448,0.01649334840476513,-0.13255766034126282
1707663723066898700,1.778898681640625,0.12583814561367035,0.05925388261675835,-0.10079269111156464
1707663723083745000,1.7957451171875,0.2919933497905731,0.13683371245861053,-0.028099779039621353
1707663723100591600,1.812591552734375,0.4001164436340332,0.16676609218120575,-0.023823726922273636
1707663723117438000,1.82943798828125,0.360410213470459,0.13500112295150757,-0.05925388261675835
1707663723134284300,1.8462841796875,0.26939135789871216,0.11178825795650482,-0.07269290834665298
1707663723151131000,1.863130859375,0.1484401375055313,0.06597339361906052,-0.030543239787220955
1707663723167977200,1.879977294921875,0.10934479534626007,0.026878049597144127,-0.07147117704153061
1707663723184823600,1.896823486328125,0.1026252806186676,0.049480047076940536,-0.10384701192378998
1707663723201670100,1.913670166015625,0.07941242307424545,0.08063415437936783,-0.15149445831775665
1707663723218516500,1.9305166015625,0.06291907280683517,0.10873392969369888,-0.20280711352825165
1707663723235362800,1.94736279296875,0.056810423731803894,0.049480047076940536,-0.1496618688106537
1707663723252209400,1.96420947265625,0.07757982611656189,0.0054977829568088055,-0.13011419773101807
1707663723269055700,1.9810556640625,0.04520399495959282,0.025045456364750862,-0.13561198115348816
1707663723285902300,1.99790234375,-0.046425722539424896,0.07147117704153061,-0.14172062277793884
1707663723302748700,2.014748779296875,-0.11728604137897491,0.07819069176912308,-0.11362084746360779
1707663723319595000,2.031594970703125,-0.14538581669330597,0.07635809481143951,-0.08429934084415436
1707663723336441600,2.048441650390625,-0.11484257876873016,0.07880155742168427,-0.17837251722812653
1707663723353288000,2.065287841796875,-0.12156209349632263,0.08918625861406326,-0.22418737411499023
1707663723370134500,2.082134521484375,-0.11545344442129135,0.08918625861406326,-0.2809978127479553
1707663723386980900,2.09898095703125,-0.12583814561367035,0.06780599057674408,-0.3329212963581085
1707663723403827200,2.1158271484375,-0.14172062277793884,0.06230820715427399,-0.36224281787872314
1707663723420673800,2.132673828125,-0.16676609218120575,0.05558869615197182,-0.3121519088745117
1707663723437520100,2.14952001953125,-0.1893680840730667,0.043982263654470444,-0.2406807243824005
1707663723454366700,2.16636669921875,-0.1747073233127594,0.031154103577136993,-0.1594357043504715
1707663723471213000,2.183213134765625,-0.14660754799842834,0.020769402384757996,-0.15088360011577606
1707663723488059600,2.2000595703125,-0.10079269111156464,0.004886918235570192,-0.143553227186203
1707663723504906000,2.216906005859375,-0.053756099194288254,-0.002443459117785096,-0.16004657745361328
1707663723521752600,2.233752685546875,-0.007941242307424545,-0.007941242307424545,-0.19914191961288452
1707663723538599000,2.250598876953125,0.008552107028663158,-0.010384701192378998,-0.22174391150474548
1707663723555445500,2.267445556640625,-0.001832594396546483,-0.004886918235570192,-0.26878049969673157
1707663723572291800,2.284291748046875,-0.015271619893610477,-0.001221729558892548,-0.32009315490722656
1707663723589138400,2.301138427734375,-0.017104214057326317,-0.007941242307424545,-0.2761108875274658
1707663723605984800,2.31798486328125,-0.009162971749901772,-0.013439024798572063,-0.12034036219120026
1707663723622831000,2.3348310546875,0.017715077847242355,-0.004276053514331579,0.004886918235570192
1707663723639677700,2.351677734375,0.014660755172371864,-0.002443459117785096,0.03543015569448471
1707663723656524300,2.368524169921875,0.0054977829568088055,0,0.05742128938436508
1707663723673370600,2.38537060546875,0.01282816007733345,-0.0030543238390237093,0.09101885557174683
1707663723690217200,2.40221728515625,0.01893680728971958,-0.004276053514331579,0.12156209349632263
1707663723707063600,2.4190634765625,0.025045456364750862,-0.002443459117785096,0.11545344442129135
1707663723723910100,2.43591015625,0.031154103577136993,-0.021991131827235222,-0.05925388261675835
1707663723740756700,2.4527568359375,0.006719512399286032,0.004276053514331579,-0.28954991698265076
1707663723757603000,2.46960302734375,0.0030543238390237093,-0.003665188793092966,-0.10018182545900345
1707663723774449700,2.48644970703125,0.014049889519810677,-0.006719512399286032,0.0922405794262886
1707663723791296000,2.5032958984375,0.009162971749901772,-0.0054977829568088055,-0.015271619893610477
1707663723808142600,2.520142578125,0.004886918235570192,-0.0054977829568088055,-0.0873536616563797
1707663723824989200,2.5369892578125,0.007330377586185932,-0.0054977829568088055,0.013439024798572063
1707663723841835500,2.55383544921875,0.007941242307424545,-0.004886918235570192,0.020769402384757996
1707663723858682000,2.57068212890625,0.0054977829568088055,-0.006108647678047419,-0.04764745384454727
1707663723875528700,2.58752880859375,0.0054977829568088055,-0.004886918235570192,-0.017715077847242355
1707663723892375000,2.604375,0.006719512399286032,-0.004886918235570192,0.014049889519810677
1707663723909221600,2.6212216796875,0.004886918235570192,-0.0054977829568088055,-0.021380268037319183
1707663723926068200,2.638068115234375,0.004886918235570192,-0.004276053514331579,-0.023212861269712448
1707663723942914600,2.65491455078125,0.006108647678047419,-0.0054977829568088055,0.002443459117785096
1707663723959761200,2.67176123046875,0.006108647678047419,-0.0054977829568088055,-0.007941242307424545
1707663723976607700,2.688607666015625,0.006108647678047419,-0.004276053514331579,-0.01954767294228077
1707663723993454000,2.7054541015625,0.007330377586185932,-0.006108647678047419,-0.004276053514331579
1707663724010300700,2.72230078125,0.006108647678047419,-0.0054977829568088055,-0.004886918235570192
1707663724027147300,2.739147216796875,0.006108647678047419,-0.0054977829568088055,-0.014660755172371864
1707663724043993900,2.755993896484375,0.006108647678047419,-0.0054977829568088055,-0.008552107028663158
1707663724060840200,2.772840087890625,0.006108647678047419,-0.004886918235570192,-0.004886918235570192
1707663724077686800,2.789686767578125,0.0054977829568088055,-0.0054977829568088055,-0.009773836471140385
1707663724094533400,2.806533447265625,0.006108647678047419,-0.004886918235570192,-0.010384701192378998
1707663724111380000,2.8233798828125,0.006108647678047419,-0.0054977829568088055,-0.0054977829568088055
1707663724128226300,2.840226318359375,0.006108647678047419,-0.004886918235570192,-0.008552107028663158
1707663724145073000,2.857072998046875,0.006108647678047419,-0.006108647678047419,-0.010384701192378998
1707663724161919500,2.87391943359375,0.006719512399286032,-0.004886918235570192,-0.007330377586185932
1707663724178766000,2.89076611328125,0.006108647678047419,-0.0054977829568088055,-0.008552107028663158
1707663724195612400,2.9076123046875,0.006719512399286032,-0.004886918235570192,-0.010384701192378998
1707663724212459000,2.924458984375,0.006108647678047419,-0.004886918235570192,-0.007330377586185932
1707663724229305600,2.9413056640625,0.0054977829568088055,-0.0054977829568088055,-0.007330377586185932
1707663724246152200,2.958152099609375,0.006108647678047419,-0.006108647678047419,-0.009162971749901772
1707663724262998800,2.974998779296875,0.006108647678047419,-0.0054977829568088055,-0.007941242307424545
1707663724279845400,2.991845458984375,0.0054977829568088055,-0.0054977829568088055,-0.009162971749901772
1707663724296691700,3.008691650390625,0.0054977829568088055,-0.0054977829568088055,-0.007941242307424545
1707663724313538300,3.025538330078125,0.0054977829568088055,-0.0054977829568088055,-0.007330377586185932
1707663724330385000,3.042385009765625,0.006108647678047419,-0.004886918235570192,-0.007941242307424545
1707663724347231500,3.0592314453125,0.0054977829568088055,-0.0054977829568088055,-0.007941242307424545
1707663724364078000,3.076078125,0.006108647678047419,-0.004886918235570192,-0.007330377586185932
1707663724380924700,3.092924560546875,0.006108647678047419,-0.004886918235570192,-0.007330377586185932
1707663724397771300,3.109771240234375,0.006108647678047419,-0.004276053514331579,-0.007330377586185932
1707663724414617900,3.126617919921875,0.006108647678047419,-0.0054977829568088055,-0.007330377586185932
1707663724431464200,3.143464111328125,0.006108647678047419,-0.0054977829568088055,-0.006719512399286032
1707663724448310800,3.160310791015625,0.006108647678047419,-0.0054977829568088055,-0.007330377586185932
1707663724465157400,3.177157470703125,0.0054977829568088055,-0.0054977829568088055,-0.007330377586185932
1707663724482004000,3.19400390625,0.006108647678047419,-0.0054977829568088055,-0.007330377586185932
1707663724498850600,3.2108505859375,0.006108647678047419,-0.0054977829568088055,-0.007941242307424545
1707663724515697200,3.227697265625,0.004886918235570192,-0.004886918235570192,-0.007941242307424545
1707663724532543700,3.244543701171875,0.006108647678047419,-0.0054977829568088055,-0.007330377586185932
1707663724549390300,3.261390380859375,0.004886918235570192,-0.004886918235570192,-0.007330377586185932
1707663724566237000,3.27823681640625,0.006108647678047419,-0.0054977829568088055,-0.007941242307424545
1707663724583083500,3.29508349609375,0.006108647678047419,-0.004886918235570192,-0.007941242307424545
1707663724599930000,3.31193017578125,0.006108647678047419,-0.004886918235570192,-0.007330377586185932
1707663724616776700,3.328776611328125,0.006108647678047419,-0.0054977829568088055,-0.008552107028663158
1707663724633623300,3.345623291015625,0.006108647678047419,-0.004886918235570192,-0.007330377586185932
1707663724650470000,3.362469970703125,0.006108647678047419,-0.0054977829568088055,-0.007941242307424545
1707663724667316500,3.37931640625,0.006108647678047419,-0.004276053514331579,-0.007330377586185932
1707663724684163000,3.3961630859375,0.0054977829568088055,-0.004276053514331579,-0.007330377586185932
1707663724701009700,3.413009765625,0.006108647678047419,-0.0054977829568088055,-0.006719512399286032
1707663724717856300,3.429856201171875,0.006108647678047419,-0.004886918235570192,-0.007330377586185932
1707663724734702800,3.446702880859375,0.006108647678047419,-0.004886918235570192,-0.007330377586185932
1707663724751549400,3.463549560546875,0.006108647678047419,-0.004276053514331579,-0.006719512399286032
1707663724768396000,3.48039599609375,0.0054977829568088055,-0.006108647678047419,-0.006719512399286032
1707663724785242600,3.49724267578125,0.006108647678047419,-0.0054977829568088055,-0.007330377586185932
1707663724802089200,3.514089111328125,0.004886918235570192,-0.004886918235570192,-0.007941242307424545
1707663724818935800,3.530935791015625,0.004886918235570192,-0.004886918235570192,-0.006719512399286032
1707663724835782400,3.547782470703125,0.004886918235570192,-0.003665188793092966,-0.007330377586185932
1707663724852629000,3.56462890625,0.0054977829568088055,-0.0054977829568088055,-0.008552107028663158
1707663724869475600,3.5814755859375,0.0054977829568088055,-0.004886918235570192,-0.007330377586185932
1707663724886322200,3.598322265625,0.0054977829568088055,-0.004276053514331579,-0.007941242307424545
1707663724903168800,3.615168701171875,0.0054977829568088055,-0.004276053514331579,-0.007330377586185932
1707663724920015600,3.632015625,0.0054977829568088055,-0.004886918235570192,-0.007941242307424545
1707663724936862200,3.6488623046875,0.0054977829568088055,-0.004886918235570192,-0.007330377586185932
1707663724953708800,3.665708740234375,0.0054977829568088055,-0.004276053514331579,-0.007330377586185932
1707663724970555400,3.682555419921875,0.006108647678047419,-0.004276053514331579,-0.006108647678047419
1707663724987402000,3.699402099609375,0.0054977829568088055,-0.004886918235570192,-0.007941242307424545
1707663725004248600,3.71624853515625,0.006108647678047419,-0.004886918235570192,-0.006719512399286032
1707663725021095200,3.73309521484375,0.006108647678047419,-0.004276053514331579,-0.006719512399286032
1707663725037942000,3.74994189453125,0.006108647678047419,-0.0054977829568088055,-0.006719512399286032
1707663725054788600,3.76678857421875,0.006108647678047419,-0.0054977829568088055,-0.006108647678047419
1707663725071635200,3.78363525390625,0.006108647678047419,-0.004276053514331579,-0.007330377586185932
1707663725088481800,3.800481689453125,0.006108647678047419,-0.0054977829568088055,-0.006719512399286032
1707663725105328400,3.817328369140625,0.0054977829568088055,-0.004886918235570192,-0.006719512399286032
1707663725122175200,3.83417529296875,0.0054977829568088055,-0.004276053514331579,-0.006719512399286032
1707663725139021800,3.851021728515625,0.006108647678047419,-0.004886918235570192,-0.007941242307424545
1707663725155868400,3.867868408203125,0.0054977829568088055,-0.003665188793092966,-0.007330377586185932
1707663725172715000,3.884715087890625,0.006108647678047419,-0.004886918235570192,-0.007330377586185932
1707663725189561600,3.9015615234375,0.0054977829568088055,-0.004886918235570192,-0.007330377586185932
1707663725206408400,3.918408447265625,0.006108647678047419,-0.004886918235570192,-0.007330377586185932
1707663725223255000,3.935255126953125,0.006108647678047419,-0.004886918235570192,-0.007941242307424545
1707663725240101600,3.9521015625,0.006108647678047419,-0.004886918235570192,-0.007330377586185932
1707663725256948200,3.9689482421875,0.006108647678047419,-0.004886918235570192,-0.006719512399286032
1707663725273795000,3.985795166015625,0.0054977829568088055,-0.0054977829568088055,-0.007330377586185932
1707663725290641700,4.0026416015625,0.006108647678047419,-0.004886918235570192,-0.006108647678047419
1707663725307488300,4.01948828125,0.006108647678047419,-0.0054977829568088055,-0.007330377586185932
1707663725324335000,4.036335205078125,0.0054977829568088055,-0.004276053514331579,-0.007330377586185932
1707663725341181700,4.053181640625,0.006108647678047419,-0.0054977829568088055,-0.007330377586185932
1707663725358028300,4.0700283203125,0.0054977829568088055,-0.0054977829568088055,-0.007330377586185932
1707663725374875000,4.086875,0.004886918235570192,-0.004886918235570192,-0.007330377586185932
1707663725391721700,4.1037216796875,0.006108647678047419,-0.004886918235570192,-0.007941242307424545
1707663725408568300,4.120568359375,0.0054977829568088055,-0.004886918235570192,-0.007330377586185932
1707663725425415000,4.137414794921875,0.006108647678047419,-0.006108647678047419,-0.006108647678047419
1707663725442261800,4.15426171875,0.0054977829568088055,-0.004886918235570192,-0.007330377586185932
1707663725459108400,4.1711083984375,0.006108647678047419,-0.004276053514331579,-0.006719512399286032
1707663725475955000,4.187954833984375,0.006719512399286032,-0.004276053514331579,-0.007941242307424545
1707663725492801800,4.2048017578125,0.006108647678047419,-0.004886918235570192,-0.007330377586185932
1707663725509648400,4.2216484375,0.0054977829568088055,-0.004276053514331579,-0.006719512399286032
1707663725526495000,4.238494873046875,0.006108647678047419,-0.006108647678047419,-0.006719512399286032
1707663725543341800,4.255341796875,0.0054977829568088055,-0.0054977829568088055,-0.006719512399286032
1707663725560188400,4.2721884765625,0.004886918235570192,-0.004276053514331579,-0.006719512399286032
1707663725577035000,4.289034912109375,0.006108647678047419,-0.004886918235570192,-0.007330377586185932
1707663725593881900,4.3058818359375,0.004886918235570192,-0.0054977829568088055,-0.006108647678047419
1707663725610728400,4.322728515625,0.006108647678047419,-0.006108647678047419,-0.006108647678047419
1707663725627575300,4.3395751953125,0.006108647678047419,-0.004886918235570192,-0.006108647678047419
1707663725644422000,4.356421875,0.0054977829568088055,-0.006108647678047419,-0.007330377586185932
1707663725661268700,4.373268798828125,0.006108647678047419,-0.0054977829568088055,-0.007330377586185932
1707663725678115300,4.390115234375,0.006108647678047419,-0.006719512399286032,-0.007330377586185932
1707663725694962200,4.406962158203125,0.006108647678047419,-0.004886918235570192,-0.007330377586185932
1707663725711808800,4.423808837890625,0.0054977829568088055,-0.0054977829568088055,-0.007941242307424545
1707663725728655400,4.4406552734375,0.006108647678047419,-0.004886918235570192,-0.007330377586185932
1707663725745502200,4.457502197265625,0.006108647678047419,-0.004276053514331579,-0.006108647678047419
1707663725762348800,4.474348876953125,0.006108647678047419,-0.004886918235570192,-0.006719512399286032
1707663725779195600,4.491195556640625,0.006108647678047419,-0.0054977829568088055,-0.006719512399286032
1707663725796042200,4.508042236328125,0.006108647678047419,-0.0054977829568088055,-0.007330377586185932
1707663725812889000,4.52488916015625,0.004886918235570192,-0.004886918235570192,-0.007941242307424545
1707663725829735700,4.541735595703125,0.0054977829568088055,-0.0054977829568088055,-0.006108647678047419
1707663725846582500,4.55858251953125,0.0054977829568088055,-0.004276053514331579,-0.006719512399286032
1707663725863429000,4.57542919921875,0.006108647678047419,-0.004886918235570192,-0.006108647678047419
1707663725880276000,4.59227587890625,0.0054977829568088055,-0.006108647678047419,-0.006108647678047419
1707663725897122600,4.60912255859375,0.006108647678047419,-0.006108647678047419,-0.007330377586185932
1707663725913969400,4.625969482421875,0.006108647678047419,-0.004886918235570192,-0.006108647678047419
1707663725930816000,4.64281591796875,0.0054977829568088055,-0.0054977829568088055,-0.006719512399286032
1707663725947662800,4.659662841796875,0.006108647678047419,-0.004886918235570192,-0.007330377586185932
1707663725964509400,4.676509521484375,0.006108647678047419,-0.004886918235570192,-0.007941242307424545
1707663725981356300,4.693356201171875,0.0054977829568088055,-0.004886918235570192,-0.006108647678047419
1707663725998203000,4.710202880859375,0.006108647678047419,-0.004276053514331579,-0.006719512399286032
1707663726015049700,4.7270498046875,0.006108647678047419,-0.004886918235570192,-0.007941242307424545
1707663726031896600,4.743896484375,0.006108647678047419,-0.004886918235570192,-0.006108647678047419
1707663726048743200,4.7607431640625,0.0054977829568088055,-0.004276053514331579,-0.006719512399286032
1707663726065590000,4.777590087890625,0.0054977829568088055,-0.004886918235570192,-0.006719512399286032
1707663726082436600,4.7944365234375,0.006108647678047419,-0.0054977829568088055,-0.007330377586185932
1707663726099283500,4.811283447265625,0.0054977829568088055,-0.004886918235570192,-0.007330377586185932
1707663726116130300,4.82813037109375,0.004886918235570192,-0.004886918235570192,-0.0054977829568088055
1707663726132977000,4.844976806640625,0.0054977829568088055,-0.0054977829568088055,-0.0054977829568088055
1707663726149823700,4.86182373046875,0.0054977829568088055,-0.004886918235570192,-0.006108647678047419
1707663726166670300,4.87867041015625,0.006108647678047419,-0.004886918235570192,-0.006108647678047419
1707663726183517200,4.89551708984375,0.0054977829568088055,-0.004886918235570192,-0.006108647678047419
1707663726200364000,4.912364013671875,0.004886918235570192,-0.006108647678047419,-0.006108647678047419
1707663726217210600,4.929210693359375,0.0054977829568088055,-0.004886918235570192,-0.006108647678047419
1707663726234057500,4.946057373046875,0.0054977829568088055,-0.004276053514331579,-0.007330377586185932
1707663726250904300,4.962904296875,0.004886918235570192,-0.004886918235570192,-0.006719512399286032
1707663726267751000,4.9797509765625,0.006108647678047419,-0.004886918235570192,-0.006719512399286032
1707663726284597800,4.99659765625,0.006108647678047419,-0.0054977829568088055,-0.007330377586185932
1707663726301444600,5.013444580078125,0.004886918235570192,-0.006108647678047419,-0.007330377586185932
1707663726318291200,5.030291259765625,0.0054977829568088055,-0.0054977829568088055,-0.007330377586185932
1707663726335138000,5.047137939453125,0.006108647678047419,-0.006108647678047419,-0.007330377586185932
1707663726351985000,5.06398486328125,0.0054977829568088055,-0.004886918235570192,-0.007941242307424545
1707663726368831500,5.08083154296875,0.0054977829568088055,-0.004886918235570192,-0.006108647678047419
1707663726385678300,5.09767822265625,0.0054977829568088055,-0.0054977829568088055,-0.006108647678047419
1707663726402525200,5.114525146484375,0.006108647678047419,-0.0054977829568088055,-0.006108647678047419
1707663726419372000,5.1313720703125,0.006108647678047419,-0.004886918235570192,-0.006719512399286032
1707663726436218600,5.148218505859375,0.006108647678047419,-0.004276053514331579,-0.007330377586185932
1707663726453065500,5.1650654296875,0.0054977829568088055,-0.0054977829568088055,-0.006108647678047419
1707663726469912300,5.181912353515625,0.006108647678047419,-0.0054977829568088055,-0.007330377586185932
1707663726486759000,5.198759033203125,0.004886918235570192,-0.0054977829568088055,-0.006719512399286032
1707663726503605800,5.215605712890625,0.004886918235570192,-0.0054977829568088055,-0.006719512399286032
1707663726520452600,5.23245263671875,0.006108647678047419,-0.0054977829568088055,-0.006719512399286032
1707663726537299500,5.249299560546875,0.006108647678047419,-0.004276053514331579,-0.006108647678047419
1707663726554146300,5.266146240234375,0.006719512399286032,-0.0054977829568088055,-0.006719512399286032
1707663726570993000,5.282992919921875,0.006108647678047419,-0.004886918235570192,-0.007330377586185932
1707663726587839700,5.29983984375,0.006108647678047419,-0.004886918235570192,-0.007941242307424545
1707663726604686600,5.3166865234375,0.006719512399286032,-0.004886918235570192,-0.007330377586185932
1707663726621533200,5.333533203125,0.004886918235570192,-0.004886918235570192,-0.006108647678047419
1707663726638380000,5.350380126953125,0.006108647678047419,-0.004886918235570192,-0.006719512399286032
1707663726655227000,5.367226806640625,0.006108647678047419,-0.004276053514331579,-0.007330377586185932
1707663726672073700,5.38407373046875,0.0054977829568088055,-0.0054977829568088055,-0.007330377586185932
1707663726688920600,5.400920654296875,0.004886918235570192,-0.006108647678047419,-0.007330377586185932
1707663726705767400,5.417767333984375,0.004886918235570192,-0.004276053514331579,-0.006719512399286032
1707663726722614000,5.434614013671875,0.0054977829568088055,-0.004886918235570192,-0.007941242307424545
1707663726739460900,5.4514609375,0.006108647678047419,-0.004276053514331579,-0.006719512399286032
1707663726756307700,5.4683076171875,0.006108647678047419,-0.0054977829568088055,-0.007330377586185932
1707663726773154600,5.485154541015625,0.006108647678047419,-0.004886918235570192,-0.007330377586185932
1707663726790001400,5.50200146484375,0.006108647678047419,-0.0054977829568088055,-0.006108647678047419
1707663726806848300,5.51884814453125,0.006108647678047419,-0.004276053514331579,-0.007941242307424545
1707663726823694800,5.53569482421875,0.0054977829568088055,-0.0054977829568088055,-0.007330377586185932
1707663726840541700,5.552541748046875,0.006108647678047419,-0.004886918235570192,-0.006108647678047419
1707663726857388500,5.569388427734375,0.0054977829568088055,-0.004886918235570192,-0.006719512399286032
1707663726874235400,5.5862353515625,0.0054977829568088055,-0.004886918235570192,-0.006719512399286032
1707663726891082200,5.603082275390625,0.0054977829568088055,-0.004886918235570192,-0.006719512399286032
1707663726907929000,5.61992919921875,0.006108647678047419,-0.004886918235570192,-0.007330377586185932
1707663726924776000,5.63677587890625,0.0054977829568088055,-0.004886918235570192,-0.007330377586185932
1707663726941622500,5.65362255859375,0.004886918235570192,-0.0054977829568088055,-0.006108647678047419
1707663726958469400,5.670469482421875,0.006108647678047419,-0.004886918235570192,-0.006719512399286032
1707663726975316200,5.687316162109375,0.0054977829568088055,-0.004886918235570192,-0.006719512399286032
1707663726992163000,5.7041630859375,0.006719512399286032,-0.004886918235570192,-0.006719512399286032
1707663727009010000,5.721010009765625,0.006108647678047419,-0.004886918235570192,-0.007330377586185932
1707663727025856800,5.737856689453125,0.006108647678047419,-0.0054977829568088055,-0.007330377586185932
1707663727042703600,5.75470361328125,0.006108647678047419,-0.004886918235570192,-0.006108647678047419
1707663727059550500,5.771550537109375,0.0054977829568088055,-0.0054977829568088055,-0.006719512399286032
1707663727076397300,5.788397216796875,0.006108647678047419,-0.004886918235570192,-0.006108647678047419
1707663727093244200,5.805244140625,0.006108647678047419,-0.004276053514331579,-0.006719512399286032
1707663727110091000,5.822091064453125,0.0054977829568088055,-0.004886918235570192,-0.006108647678047419
1707663727126937900,5.838937744140625,0.006108647678047419,-0.0054977829568088055,-0.007330377586185932
1707663727143784700,5.85578466796875,0.006719512399286032,-0.003665188793092966,-0.006108647678047419
1707663727160631600,5.872631591796875,0.006108647678047419,-0.004276053514331579,-0.006719512399286032
1707663727177478100,5.88947802734375,0.006108647678047419,-0.0054977829568088055,-0.007941242307424545
1707663727194325000,5.906324951171875,0.0054977829568088055,-0.004276053514331579,-0.006108647678047419
1707663727211171800,5.923171875,0.0054977829568088055,-0.004886918235570192,-0.007330377586185932
1707663727228018700,5.940018798828125,0.006108647678047419,-0.0054977829568088055,-0.007330377586185932
1707663727244865500,5.956865478515625,0.006108647678047419,-0.0054977829568088055,-0.007330377586185932
1707663727261712400,5.97371240234375,0.004886918235570192,-0.004276053514331579,-0.006719512399286032
1707663727278559200,5.990559326171875,0.0054977829568088055,-0.004886918235570192,-0.007330377586185932
1707663727295406000,6.007406005859375,0.004886918235570192,-0.0054977829568088055,-0.007330377586185932
1707663727312253000,6.0242529296875,0.0054977829568088055,-0.0054977829568088055,-0.006719512399286032
1707663727329099800,6.041099853515625,0.004886918235570192,-0.004276053514331579,-0.007330377586185932
1707663727345946600,6.057946533203125,0.006108647678047419,-0.004276053514331579,-0.007330377586185932
1707663727362793500,6.07479345703125,0.0054977829568088055,-0.004886918235570192,-0.006719512399286032
1707663727379640300,6.091640380859375,0.0054977829568088055,-0.004276053514331579,-0.006719512399286032
1707663727396487200,6.108487060546875,0.006108647678047419,-0.004276053514331579,-0.006719512399286032
1707663727413334000,6.125333984375,0.006108647678047419,-0.0054977829568088055,-0.006719512399286032
1707663727430180900,6.142180908203125,0.006108647678047419,-0.0054977829568088055,-0.006719512399286032
1707663727447028000,6.159028076171875,0.0054977829568088055,-0.006108647678047419,-0.006719512399286032
1707663727463874600,6.17587451171875,0.0054977829568088055,-0.004886918235570192,-0.006719512399286032
1707663727480721700,6.1927216796875,0.006108647678047419,-0.006108647678047419,-0.006719512399286032
1707663727497568500,6.209568603515625,0.006108647678047419,-0.004886918235570192,-0.007330377586185932
1707663727514415400,6.226415283203125,0.006108647678047419,-0.006108647678047419,-0.006108647678047419
1707663727531262200,6.24326220703125,0.006108647678047419,-0.004886918235570192,-0.007941242307424545
1707663727548109000,6.260109130859375,0.006108647678047419,-0.0054977829568088055,-0.006719512399286032
1707663727564956000,6.276955810546875,0.004276053514331579,-0.004886918235570192,-0.006719512399286032
1707663727581802800,6.293802734375,0.004276053514331579,-0.004886918235570192,-0.006719512399286032
1707663727598649600,6.310649658203125,0.0054977829568088055,-0.004886918235570192,-0.006719512399286032
1707663727615496400,6.327496337890625,0.006108647678047419,-0.004886918235570192,-0.007330377586185932
1707663727632343300,6.34434326171875,0.006108647678047419,-0.0054977829568088055,-0.0054977829568088055
1707663727649190100,6.361190185546875,0.006108647678047419,-0.0054977829568088055,-0.006719512399286032
1707663727666037000,6.378037109375,0.006108647678047419,-0.0054977829568088055,-0.007330377586185932
1707663727682883800,6.3948837890625,0.006108647678047419,-0.004886918235570192,-0.006719512399286032
1707663727699730700,6.411730712890625,0.006108647678047419,-0.004886918235570192,-0.0054977829568088055
1707663727716577800,6.428577880859375,0.006108647678047419,-0.004886918235570192,-0.007330377586185932
1707663727733424600,6.445424560546875,0.0054977829568088055,-0.004886918235570192,-0.006719512399286032
1707663727750271500,6.462271484375,0.004886918235570192,-0.004886918235570192,-0.007330377586185932
1707663727767118300,6.479118408203125,0.006108647678047419,-0.004886918235570192,-0.006719512399286032
1707663727783965200,6.495965087890625,0.006108647678047419,-0.004276053514331579,-0.007330377586185932
1707663727800812000,6.51281201171875,0.006719512399286032,-0.004886918235570192,-0.007330377586185932
1707663727817659000,6.529658935546875,0.0054977829568088055,-0.0054977829568088055,-0.006719512399286032
1707663727834505700,6.546505615234375,0.0054977829568088055,-0.004886918235570192,-0.007330377586185932
1707663727851352800,6.563352783203125,0.0054977829568088055,-0.0054977829568088055,-0.006719512399286032
1707663727868199700,6.58019970703125,0.0054977829568088055,-0.004886918235570192,-0.006719512399286032
1707663727885046500,6.597046630859375,0.0054977829568088055,-0.004886918235570192,-0.007330377586185932
1707663727901893400,6.613893310546875,0.0054977829568088055,-0.0054977829568088055,-0.006719512399286032
1707663727918740200,6.630740234375,0.0054977829568088055,-0.0054977829568088055,-0.006719512399286032
1707663727935587000,6.647587158203125,0.006108647678047419,-0.004886918235570192,-0.006719512399286032
1707663727952434000,6.664433837890625,0.0054977829568088055,-0.004886918235570192,-0.006719512399286032
1707663727969281000,6.681281005859375,0.004886918235570192,-0.004276053514331579,-0.007330377586185932
1707663727986128000,6.6981279296875,0.0054977829568088055,-0.004886918235570192,-0.006108647678047419
1707663728002974700,6.714974609375,0.006108647678047419,-0.0054977829568088055,-0.006719512399286032
1707663728019821600,6.731821533203125,0.006108647678047419,-0.0054977829568088055,-0.006719512399286032
1707663728036668400,6.74866845703125,0.0054977829568088055,-0.004886918235570192,-0.007330377586185932
1707663728053515500,6.765515625,0.006108647678047419,-0.004276053514331579,-0.006108647678047419
1707663728070362400,6.7823623046875,0.0054977829568088055,-0.006108647678047419,-0.006719512399286032
1707663728087209200,6.799209228515625,0.006108647678047419,-0.004276053514331579,-0.006719512399286032
1707663728104056000,6.81605615234375,0.0054977829568088055,-0.004276053514331579,-0.007330377586185932
1707663728120903000,6.83290283203125,0.006108647678047419,-0.004886918235570192,-0.008552107028663158
1707663728137749800,6.849749755859375,0.006719512399286032,-0.006108647678047419,-0.006719512399286032
1707663728154596900,6.866596923828125,0.0054977829568088055,-0.004276053514331579,-0.007941242307424545
1707663728171443700,6.883443603515625,0.003665188793092966,-0.0054977829568088055,-0.008552107028663158
1707663728188290600,6.90029052734375,0.0030543238390237093,-0.004276053514331579,-0.006719512399286032
1707663728205137400,6.917137451171875,0.004886918235570192,-0.004886918235570192,-0.006108647678047419
1707663728221984300,6.933984375,0.0054977829568088055,-0.0054977829568088055,-0.0054977829568088055
1707663728238831400,6.950831298828125,0.006719512399286032,-0.006108647678047419,-0.0054977829568088055
1707663728255678200,6.96767822265625,0.003665188793092966,-0.004276053514331579,-0.006719512399286032
1707663728272525000,6.984525146484375,0.004276053514331579,-0.0054977829568088055,-0.006719512399286032
1707663728289372000,7.001371826171875,0.0054977829568088055,-0.004886918235570192,-0.004886918235570192
1707663728306219000,7.018218994140625,0.006108647678047419,-0.004276053514331579,-0.006719512399286032
1707663728323065900,7.03506591796875,0.004886918235570192,-0.0054977829568088055,-0.006719512399286032
1707663728339912700,7.05191259765625,0.004886918235570192,-0.0054977829568088055,-0.006108647678047419
1707663728356759600,7.068759521484375,0.006108647678047419,-0.004886918235570192,-0.006719512399286032
1707663728373606700,7.085606689453125,0.002443459117785096,-0.004886918235570192,-0.009162971749901772
1707663728390453500,7.10245361328125,0.007330377586185932,-0.004886918235570192,-0.006719512399286032
1707663728407300400,7.11930029296875,0.006719512399286032,-0.004886918235570192,-0.004886918235570192
1707663728424147200,7.136147216796875,0.004886918235570192,-0.004886918235570192,-0.006719512399286032
1707663728440994300,7.152994384765625,0.004886918235570192,-0.0054977829568088055,-0.0054977829568088055
1707663728457841200,7.169841064453125,0.004886918235570192,-0.004276053514331579,-0.004886918235570192
1707663728474688000,7.18668798828125,0.004886918235570192,-0.004886918235570192,-0.009773836471140385
1707663728491535000,7.20353515625,0.007330377586185932,-0.004886918235570192,-0.006719512399286032
1707663728508382000,7.2203818359375,0.006108647678047419,-0.0054977829568088055,-0.006108647678047419
1707663728525228800,7.237228759765625,0.006108647678047419,-0.004886918235570192,-0.007330377586185932
1707663728542075600,7.25407568359375,0.007330377586185932,-0.004886918235570192,-0.009773836471140385
1707663728558922800,7.2709228515625,0.007941242307424545,-0.0054977829568088055,-0.004886918235570192
1707663728575769600,7.28776953125,0.006719512399286032,-0.0054977829568088055,-0.008552107028663158
1707663728592616400,7.304616455078125,0.0054977829568088055,-0.004886918235570192,-0.007330377586185932
1707663728609463300,7.32146337890625,0.004276053514331579,-0.004276053514331579,-0.0030543238390237093
1707663728626310400,7.338310302734375,0.003665188793092966,-0.003665188793092966,-0.0054977829568088055
1707663728643157200,7.3551572265625,0.003665188793092966,-0.004276053514331579,-0.007941242307424545
1707663728660004000,7.372004150390625,0.006108647678047419,-0.004886918235570192,-0.009162971749901772
1707663728676851200,7.388851318359375,0.008552107028663158,-0.004886918235570192,-0.006108647678047419
1707663728693698000,7.405697998046875,0.007941242307424545,-0.0054977829568088055,-0.003665188793092966
1707663728710545000,7.422544921875,0.006108647678047419,-0.004886918235570192,-0.006719512399286032
1707663728727392000,7.43939208984375,0.003665188793092966,-0.003665188793092966,-0.009773836471140385
1707663728744238800,7.45623876953125,0.001221729558892548,-0.0030543238390237093,-0.001832594396546483
1707663728761085700,7.473085693359375,0.002443459117785096,-0.003665188793092966,-0.006719512399286032
1707663728777932800,7.489932861328125,0.012217295356094837,-0.007941242307424545,-0.01893680728971958
1707663728794779600,7.506779541015625,0.012217295356094837,-0.009773836471140385,-0.007941242307424545
1707663728811626500,7.52362646484375,0.006108647678047419,-0.007330377586185932,0.01954767294228077
1707663728828473600,7.5404736328125,0.0054977829568088055,-0.002443459117785096,-0.018325943499803543
1707663728845320400,7.557320556640625,0.001832594396546483,-0.003665188793092966,-0.0256563201546669
1707663728862167300,7.574167236328125,0.001832594396546483,-0.002443459117785096,0.023212861269712448
1707663728879014400,7.591014404296875,0.004886918235570192,-0.0030543238390237093,-0.011606430634856224
1707663728895861200,7.607861328125,0.008552107028663158,-0.006719512399286032,-0.03543015569448471
1707663728912708000,7.6247080078125,0.010384701192378998,-0.010384701192378998,0.007941242307424545
1707663728929555200,7.64155517578125,0.004276053514331579,-0.0054977829568088055,0.012217295356094837
1707663728946402000,7.658402099609375,-0.004886918235570192,-0.000610864779446274,-0.020769402384757996
1707663728963249000,7.675248779296875,-0.008552107028663158,0.002443459117785096,-0.011606430634856224
1707663728980096000,7.692095947265625,0.010995565913617611,0,0.01282816007733345
1707663728996942800,7.70894287109375,0.007941242307424545,-0.008552107028663158,-0.04276053607463837
1707663729013789700,7.725789794921875,0.006108647678047419,-0.006108647678047419,0.001832594396546483
1707663729030636800,7.74263671875,-0.002443459117785096,-0.007330377586185932,0.021380268037319183
1707663729047483600,7.759483642578125,0,-0.004276053514331579,-0.034208428114652634
1707663729064330800,7.776330810546875,0.010995565913617611,-0.003665188793092966,0.001221729558892548
1707663729081177600,7.793177490234375,0.009773836471140385,-0.002443459117785096,-0.004276053514331579
1707663729098024400,7.8100244140625,0.009162971749901772,-0.003665188793092966,-0.007330377586185932
1707663729114871600,7.82687158203125,0.000610864779446274,-0.003665188793092966,-0.012217295356094837
1707663729131718400,7.843718505859375,-0.0030543238390237093,-0.0054977829568088055,-0.01282816007733345
1707663729148565500,7.8605654296875,-0.000610864779446274,-0.003665188793092966,0.004276053514331579
1707663729165412400,7.877412353515625,0.01282816007733345,-0.0054977829568088055,-0.006719512399286032
1707663729182259200,7.89425927734375,0.020158538594841957,-0.008552107028663158,-0.017104214057326317
1707663729199106300,7.911106201171875,0.014049889519810677,-0.006108647678047419,0.006108647678047419
1707663729215953200,7.927953125,0.002443459117785096,-0.006108647678047419,-0.002443459117785096
1707663729232800300,7.94480029296875,0.0030543238390237093,-0.003665188793092966,-0.03176496922969818
1707663729249647000,7.961647216796875,0.007330377586185932,-0.007941242307424545,0.001221729558892548
1707663729266494000,7.978493896484375,0.010384701192378998,-0.007941242307424545,0.003665188793092966
1707663729283341000,7.995341064453125,0.01588248461484909,-0.007330377586185932,-0.010995565913617611
1707663729300188000,8.01218798828125,0.009773836471140385,-0.007941242307424545,-0.011606430634856224
1707663729317035000,8.029034912109376,0.0030543238390237093,-0.003665188793092966,0
1707663729333881900,8.0458818359375,0.004886918235570192,-0.003665188793092966,-0.007330377586185932
1707663729350728700,8.062728759765625,0.004276053514331579,-0.003665188793092966,-0.01893680728971958
1707663729367575800,8.079575927734375,0.007330377586185932,-0.004886918235570192,0.011606430634856224
1707663729384422700,8.096422607421875,0.007330377586185932,-0.0054977829568088055,-0.011606430634856224
1707663729401269800,8.113269775390625,0.007330377586185932,-0.0054977829568088055,-0.018325943499803543
1707663729418116600,8.13011669921875,0.006108647678047419,-0.004886918235570192,0.004276053514331579
1707663729434963700,8.146963623046876,0.004886918235570192,-0.004886918235570192,0.001832594396546483
1707663729451810600,8.163810546875,0.001221729558892548,-0.0030543238390237093,-0.011606430634856224
1707663729468657400,8.180657470703125,0.001832594396546483,-0.003665188793092966,-0.01282816007733345
1707663729485504500,8.19750439453125,0.001832594396546483,-0.004276053514331579,-0.003665188793092966
1707663729502351400,8.214351318359375,0.003665188793092966,-0.004276053514331579,-0.001832594396546483
1707663729519198500,8.231198486328125,0.004276053514331579,-0.004276053514331579,-0.009773836471140385
1707663729536045300,8.24804541015625,0.004886918235570192,-0.003665188793092966,-0.004276053514331579
1707663729552892400,8.264892333984376,0.006719512399286032,-0.004886918235570192,-0.007941242307424545
1707663729569739300,8.2817392578125,0.006719512399286032,-0.006108647678047419,-0.014660755172371864
1707663729586586400,8.29858642578125,0.007941242307424545,-0.006719512399286032,-0.0030543238390237093
1707663729603433200,8.31543310546875,0.008552107028663158,-0.006719512399286032,0.007330377586185932
1707663729620280000,8.332280029296875,0.003665188793092966,-0.002443459117785096,-0.01649334840476513
1707663729637127200,8.349127197265625,0.004886918235570192,-0.0030543238390237093,-0.010995565913617611
1707663729653974000,8.36597412109375,0.006108647678047419,-0.006108647678047419,0.0030543238390237093
1707663729670821000,8.382821044921876,0.009162971749901772,-0.006719512399286032,-0.01282816007733345
1707663729687668000,8.39966796875,0.007330377586185932,-0.006108647678047419,-0.012217295356094837
1707663729704515000,8.41651513671875,0.004886918235570192,-0.003665188793092966,0.002443459117785096
1707663729721362000,8.43336181640625,0.0054977829568088055,-0.004276053514331579,-0.0030543238390237093
1707663729738209000,8.450208984375,-0.003665188793092966,-0.000610864779446274,-0.01282816007733345
1707663729755055900,8.467055908203125,0.004276053514331579,-0.004276053514331579,-0.002443459117785096
1707663729771903000,8.483903076171876,0.007330377586185932,-0.004886918235570192,-0.008552107028663158
1707663729788749800,8.500749755859376,0.0054977829568088055,-0.003665188793092966,-0.009162971749901772
1707663729805597000,8.517596923828124,0.0054977829568088055,-0.004276053514331579,-0.001221729558892548
1707663729822443800,8.53444384765625,0.0054977829568088055,-0.003665188793092966,-0.004276053514331579
1707663729839291000,8.551290771484375,0.002443459117785096,-0.004276053514331579,-0.010995565913617611
1707663729856137700,8.5681376953125,-0.001221729558892548,-0.0030543238390237093,-0.006719512399286032
1707663729872984800,8.58498486328125,0,-0.003665188793092966,0.001221729558892548
1707663729889831700,8.601831787109376,0,-0.002443459117785096,-0.010384701192378998
1707663729906678800,8.6186787109375,0.002443459117785096,-0.003665188793092966,-0.007941242307424545
1707663729923525600,8.635525634765624,0.0054977829568088055,-0.004886918235570192,-0.007330377586185932
1707663729940372500,8.65237255859375,0.006108647678047419,-0.004276053514331579,-0.012217295356094837
1707663729957219600,8.669219482421875,0.009773836471140385,-0.004276053514331579,-0.0030543238390237093
1707663729974066400,8.68606640625,0.006719512399286032,-0.0054977829568088055,0.004276053514331579
1707663729990913500,8.70291357421875,0.003665188793092966,-0.004886918235570192,-0.012217295356094837
1707663730007760400,8.719760498046876,0.002443459117785096,-0.004276053514331579,-0.011606430634856224
1707663730024607500,8.736607421875,0.000610864779446274,-0.004276053514331579,-0.000610864779446274
1707663730041454300,8.753454345703124,0.012217295356094837,-0.006719512399286032,-0.006719512399286032
1707663730058301400,8.770301513671875,0.009162971749901772,-0.006108647678047419,-0.004886918235570192
1707663730075148300,8.787148193359375,0.009773836471140385,-0.006719512399286032,-0.010995565913617611
1707663730091995400,8.803995361328125,0.010995565913617611,-0.006108647678047419,-0.009773836471140385
1707663730108842500,8.820842529296876,0,-0.0030543238390237093,-0.002443459117785096
1707663730125689300,8.837689453125,0.0030543238390237093,-0.0030543238390237093,-0.003665188793092966
1707663730142536400,8.854536376953124,0.000610864779446274,-0.001832594396546483,-0.007330377586185932
1707663730159383300,8.87138330078125,0.012217295356094837,-0.007330377586185932,-0.010995565913617611
1707663730176230400,8.88823046875,0.017715077847242355,-0.006719512399286032,-0.009773836471140385
1707663730193077200,8.9050771484375,0.007941242307424545,-0.0054977829568088055,0.001221729558892548
1707663730209924400,8.92192431640625,0.007330377586185932,-0.006108647678047419,-0.000610864779446274
1707663730226771200,8.938771240234376,0.001832594396546483,-0.004276053514331579,-0.009773836471140385
1707663730243618300,8.955618408203126,0.004276053514331579,-0.0054977829568088055,-0.010995565913617611
1707663730260465200,8.972465087890624,0.002443459117785096,-0.004276053514331579,-0.0054977829568088055
1707663730277312300,8.989312255859375,0.001832594396546483,-0.004276053514331579,-0.003665188793092966
1707663730294159000,9.0061591796875,0.007330377586185932,-0.004886918235570192,-0.003665188793092966
1707663730311006200,9.023006103515625,0.006108647678047419,-0.0054977829568088055,-0.009773836471140385
1707663730327853000,9.03985302734375,0.007330377586185932,-0.004886918235570192,-0.01282816007733345
1707663730344700200,9.0567001953125,0.0054977829568088055,-0.0054977829568088055,0.001832594396546483
1707663730361547000,9.073547119140626,0.007941242307424545,-0.0054977829568088055,-0.007330377586185932
1707663730378394000,9.09039404296875,0.003665188793092966,-0.001832594396546483,-0.006719512399286032
1707663730395241000,9.107240966796875,0.006719512399286032,-0.003665188793092966,-0.001221729558892548
1707663730412088000,9.124088134765625,0.0054977829568088055,-0.004276053514331579,-0.01588248461484909
1707663730428935000,9.140934814453125,0.002443459117785096,-0.004276053514331579,-0.009773836471140385
1707663730445782000,9.157781982421875,0.004276053514331579,-0.004276053514331579,0.002443459117785096
1707663730462628900,9.17462890625,0.007941242307424545,-0.004886918235570192,-0.003665188793092966
1707663730479476000,9.19147607421875,0.007941242307424545,-0.006108647678047419,-0.01954767294228077
1707663730496322800,9.20832275390625,0.008552107028663158,-0.0054977829568088055,-0.004276053514331579
1707663730513170000,9.225169921875,0.006719512399286032,-0.004886918235570192,0.001832594396546483
1707663730530016800,9.242016845703125,0.003665188793092966,-0.004886918235570192,-0.012217295356094837
1707663730546863900,9.25886376953125,0.004886918235570192,-0.0054977829568088055,-0.0054977829568088055
1707663730563710700,9.275710693359375,0.0054977829568088055,-0.004886918235570192,-0.006719512399286032
1707663730580557800,9.292557861328126,0.0054977829568088055,-0.004276053514331579,-0.014660755172371864
1707663730597405000,9.309405029296874,0.008552107028663158,-0.0054977829568088055,-0.002443459117785096
1707663730614251800,9.326251708984374,0.007941242307424545,-0.006108647678047419,0
1707663730631099000,9.343098876953125,0.006719512399286032,-0.0054977829568088055,-0.007330377586185932
1707663730647945700,9.35994580078125,0.006108647678047419,-0.004276053514331579,-0.01282816007733345
1707663730664792800,9.376792724609375,0.004886918235570192,-0.004886918235570192,-0.004886918235570192
1707663730681639700,9.3936396484375,0.003665188793092966,-0.0054977829568088055,-0.002443459117785096
1707663730698486800,9.41048681640625,0.001832594396546483,-0.004886918235570192,-0.010995565913617611
1707663730715333600,9.427333740234374,0.009773836471140385,-0.007941242307424545,-0.004276053514331579
1707663730732180700,9.4441806640625,0.017715077847242355,-0.009773836471140385,-0.010384701192378998
1707663730749027600,9.461027587890625,0.010995565913617611,-0.007330377586185932,-0.01954767294228077
1707663730765874700,9.477874755859375,-0.056810423731803894,0.009162971749901772,-0.04886918142437935
1707663730782721500,9.494721435546875,0.020769402384757996,-0.004276053514331579,0.027488915249705315
1707663730799568600,9.511568603515625,0.01588248461484909,-0.007330377586185932,-0.003665188793092966
1707663730816415500,9.52841552734375,0.006719512399286032,-0.002443459117785096,-0.015271619893610477
1707663730833262600,9.5452626953125,-0.002443459117785096,-0.004886918235570192,-0.028099779039621353
1707663730850109700,9.562109619140625,-0.006108647678047419,-0.001832594396546483,0.003665188793092966
1707663730866956500,9.57895654296875,0.009162971749901772,-0.007941242307424545,-0.003665188793092966
1707663730883803600,9.5958037109375,0.010995565913617611,-0.0054977829568088055,-0.0256563201546669
1707663730900650500,9.612650390625,0.01893680728971958,-0.010995565913617611,0.015271619893610477
1707663730917497600,9.62949755859375,0.007941242307424545,-0.006108647678047419,-0.020769402384757996
1707663730934344400,9.646344482421876,0.010995565913617611,-0.007941242307424545,-0.004886918235570192
1707663730951191600,9.663191650390624,-0.002443459117785096,-0.002443459117785096,-0.01282816007733345
1707663730968038400,9.680038330078125,0.024434590712189674,-0.003665188793092966,-0.001832594396546483
1707663730984885500,9.696885498046875,-0.014049889519810677,-0.001221729558892548,-0.0054977829568088055
1707663731001732400,9.713732421875,0.008552107028663158,-0.006108647678047419,-0.004886918235570192
1707663731018579500,9.730579345703125,0.004276053514331579,-0.0030543238390237093,0
1707663731035426600,9.747426513671876,0.009773836471140385,-0.006108647678047419,-0.009773836471140385
1707663731052273400,9.7642734375,0.006719512399286032,-0.004886918235570192,0.002443459117785096
1707663731069120500,9.78112060546875,0.006719512399286032,-0.0054977829568088055,-0.003665188793092966
1707663731085967400,9.79796728515625,0.006719512399286032,-0.006719512399286032,-0.007941242307424545
1707663731102814500,9.814814453125,0.0054977829568088055,-0.006108647678047419,-0.010995565913617611
1707663731119661300,9.831661376953125,0.006719512399286032,-0.006108647678047419,-0.001221729558892548
1707663731136508400,9.84850830078125,0.0054977829568088055,-0.004276053514331579,-0.0054977829568088055
1707663731153355500,9.86535546875,0.007941242307424545,-0.006108647678047419,-0.009773836471140385
1707663731170202400,9.882202392578124,0.006108647678047419,-0.004886918235570192,-0.009162971749901772
1707663731187049500,9.899049560546874,0.0054977829568088055,-0.004886918235570192,-0.012217295356094837
1707663731203896300,9.915896240234375,0.004276053514331579,-0.004886918235570192,-0.004276053514331579
1707663731220743400,9.932743408203125,0.004276053514331579,-0.003665188793092966,-0.004276053514331579
1707663731237590300,9.94959033203125,0.0030543238390237093,-0.0030543238390237093,-0.010384701192378998
1707663731254437400,9.966437255859375,0.004276053514331579,-0.004276053514331579,-0.010384701192378998
1707663731271284200,9.9832841796875,0.0054977829568088055,-0.004276053514331579,-0.009162971749901772
1707663731288131300,10.00013134765625,0.004886918235570192,-0.004886918235570192,-0.0054977829568088055
1707663731304978200,10.016978271484374,0.0054977829568088055,-0.004886918235570192,-0.001832594396546483
1707663731321825300,10.0338251953125,0.0054977829568088055,-0.004886918235570192,-0.006108647678047419
1707663731338672000,10.050672119140625,0.0054977829568088055,-0.0054977829568088055,-0.011606430634856224
1707663731355519200,10.067519287109375,0.0054977829568088055,-0.006719512399286032,-0.0054977829568088055
1707663731372366300,10.084366455078126,0.006719512399286032,-0.0054977829568088055,-0.006108647678047419
1707663731389213200,10.101213134765626,0.006719512399286032,-0.0054977829568088055,-0.001832594396546483
1707663731406060300,10.118060302734374,0.004886918235570192,-0.004276053514331579,0
1707663731422907100,10.1349072265625,0.003665188793092966,-0.004886918235570192,-0.010384701192378998
1707663731439754000,10.15175390625,0.004276053514331579,-0.003665188793092966,-0.014049889519810677
1707663731456601000,10.16860107421875,0.006108647678047419,-0.004886918235570192,-0.001221729558892548
1707663731473448200,10.1854482421875,0.006108647678047419,-0.004886918235570192,-0.004276053514331579
1707663731490295000,10.202294921875,0.0054977829568088055,-0.003665188793092966,-0.009162971749901772
1707663731507142100,10.21914208984375,0.006108647678047419,-0.0054977829568088055,-0.004276053514331579
1707663731523989000,10.235989013671874,0.006719512399286032,-0.004276053514331579,-0.007330377586185932
1707663731540836000,10.252836181640625,0.006719512399286032,-0.0054977829568088055,-0.011606430634856224
1707663731557683200,10.26968310546875,0.007941242307424545,-0.006108647678047419,-0.0054977829568088055
1707663731574530000,10.286530029296875,0.007941242307424545,-0.006108647678047419,-0.003665188793092966
1707663731591377200,10.303377197265625,0.006719512399286032,-0.006108647678047419,-0.009162971749901772
1707663731608224000,10.32022412109375,0.006719512399286032,-0.004886918235570192,-0.009773836471140385
1707663731625071000,10.337071044921874,0.006108647678047419,-0.0054977829568088055,-0.004886918235570192
1707663731641918000,10.35391796875,0.004886918235570192,-0.004276053514331579,-0.007941242307424545
1707663731658765000,10.37076513671875,0.0030543238390237093,-0.004276053514331579,-0.010384701192378998
1707663731675612000,10.38761181640625,0.004276053514331579,-0.004276053514331579,-0.002443459117785096
1707663731692459000,10.404458984375,0.0054977829568088055,-0.004886918235570192,-0.006108647678047419
1707663731709306000,10.42130615234375,0.004276053514331579,-0.0054977829568088055,-0.011606430634856224
1707663731726153000,10.438153076171876,0.006108647678047419,-0.004276053514331579,-0.007941242307424545
1707663731743000000,10.455,0.006719512399286032,-0.004886918235570192,-0.001832594396546483
1707663731759847000,10.471846923828124,0.006719512399286032,-0.004886918235570192,-0.007941242307424545
1707663731776694000,10.488694091796875,0.0054977829568088055,-0.0054977829568088055,-0.010384701192378998
1707663731793540900,10.505540771484375,0.006108647678047419,-0.004276053514331579,0.000610864779446274
1707663731810388000,10.522387939453125,0.003665188793092966,-0.004276053514331579,-0.009773836471140385
1707663731827234800,10.53923486328125,0.004886918235570192,-0.0054977829568088055,-0.01282816007733345
1707663731844082000,10.55608203125,0.004886918235570192,-0.003665188793092966,-0.001832594396546483
1707663731860928800,10.5729287109375,0.004886918235570192,-0.0054977829568088055,-0.004276053514331579
1707663731877776000,10.58977587890625,0.004276053514331579,-0.0054977829568088055,-0.010384701192378998
1707663731894623000,10.606623046875,0.007330377586185932,-0.0054977829568088055,-0.004886918235570192
1707663731911469800,10.6234697265625,0.006719512399286032,-0.006719512399286032,-0.004886918235570192
1707663731928317000,10.64031689453125,0.006108647678047419,-0.006108647678047419,-0.009162971749901772
1707663731945163800,10.657163818359376,0.007330377586185932,-0.0054977829568088055,-0.008552107028663158
1707663731962011000,10.674010986328126,0.007330377586185932,-0.004886918235570192,-0.004886918235570192
1707663731978857700,10.690857666015624,0.006108647678047419,-0.0054977829568088055,-0.007330377586185932
1707663731995704800,10.707704833984375,0.004886918235570192,-0.004886918235570192,-0.004886918235570192
1707663732012551700,10.7245517578125,0.006719512399286032,-0.0054977829568088055,-0.006719512399286032
1707663732029398800,10.741398681640625,0.004886918235570192,-0.004886918235570192,-0.007941242307424545
1707663732046246000,10.758245849609375,0.0054977829568088055,-0.0054977829568088055,-0.006719512399286032
1707663732063092700,10.7750927734375,0.006719512399286032,-0.004886918235570192,-0.001832594396546483
1707663732079939800,10.79193994140625,0.006719512399286032,-0.006108647678047419,-0.006108647678047419
1707663732096786700,10.80878662109375,0.0054977829568088055,-0.0054977829568088055,-0.007330377586185932
1707663732113633800,10.8256337890625,0.007941242307424545,-0.004886918235570192,-0.009162971749901772
1707663732130480600,10.842480712890625,0.006719512399286032,-0.004886918235570192,-0.004276053514331579
1707663732147327700,10.85932763671875,0.004886918235570192,-0.004276053514331579,-0.004276053514331579
1707663732164174600,10.876174560546875,0.006108647678047419,-0.004886918235570192,-0.018325943499803543
1707663732181021700,10.893021728515626,0.014660755172371864,-0.007330377586185932,-0.014660755172371864
1707663732197868800,10.909868896484374,0.018325943499803543,-0.009773836471140385,-0.01954767294228077
1707663732214715600,10.926715576171874,0.0256563201546669,-0.013439024798572063,-0.06047561392188072
1707663732231562800,10.943562744140625,0.021991131827235222,-0.012217295356094837,-0.010384701192378998
1707663732248409600,10.96040966796875,0.023823726922273636,-0.009773836471140385,0.05864302068948746
1707663732265256700,10.977256591796875,0.020158538594841957,-0.0054977829568088055,-0.023212861269712448
1707663732282103600,10.994103515625,0.01954767294228077,-0.012217295356094837,-0.05742128938436508
1707663732298950700,11.01095068359375,0.017715077847242355,-0.014660755172371864,0.017715077847242355
1707663732315797800,11.0277978515625,0.01649334840476513,-0.008552107028663158,0
1707663732332644600,11.04464453125,0.009773836471140385,-0.007330377586185932,-0.014049889519810677
1707663732349491700,11.06149169921875,0.0054977829568088055,-0.0054977829568088055,0.01282816007733345
1707663732366338600,11.078338623046875,0.009162971749901772,-0.006719512399286032,0.006719512399286032
1707663732383185700,11.095185546875,0.009162971749901772,-0.007941242307424545,-0.020158538594841957
1707663732400032500,11.112032470703125,0.015271619893610477,-0.010384701192378998,0.0030543238390237093
1707663732416879600,11.128879638671876,0.007941242307424545,-0.007941242307424545,0.009162971749901772
1707663732433726500,11.1457265625,0.006108647678047419,-0.007941242307424545,-0.017104214057326317
1707663732450573600,11.162573486328125,-0.001221729558892548,-0.003665188793092966,-0.02626718580722809
1707663732467420700,11.179420654296875,0.001221729558892548,-0.004276053514331579,-0.01649334840476513
1707663732484267500,11.196267578125,0.004276053514331579,-0.0030543238390237093,-0.021991131827235222
1707663732501114600,11.213114501953125,0.003665188793092966,-0.0030543238390237093,-0.027488915249705315
1707663732517961500,11.22996142578125,-0.000610864779446274,-0.001832594396546483,-0.01649334840476513
1707663732534808600,11.24680859375,-0.009162971749901772,0.001832594396546483,-0.011606430634856224
1707663732551655400,11.263655517578124,-0.010995565913617611,0.001221729558892548,-0.021380268037319183
1707663732568502500,11.28050244140625,-0.013439024798572063,0.0030543238390237093,-0.031154103577136993
1707663732585349600,11.297349609375,-0.003665188793092966,-0.000610864779446274,-0.001832594396546483
1707663732602196500,11.314196533203125,0,-0.002443459117785096,-0.01649334840476513
1707663732619043600,11.331043701171875,0.003665188793092966,-0.001832594396546483,-0.012217295356094837
1707663732635890400,11.347890380859376,0.003665188793092966,-0.004886918235570192,-0.004276053514331579
1707663732652737500,11.364737548828124,-0.001221729558892548,-0.003665188793092966,-0.004276053514331579
1707663732669584400,11.38158447265625,-0.0030543238390237093,-0.004886918235570192,0.001832594396546483
1707663732686431500,11.398431396484375,0.000610864779446274,-0.006108647678047419,-0.011606430634856224
1707663732703278600,11.415278564453125,0.008552107028663158,-0.007941242307424545,-0.002443459117785096
1707663732720125400,11.43212548828125,0.014049889519810677,-0.007941242307424545,-0.002443459117785096
1707663732736972500,11.44897265625,0.014660755172371864,-0.006719512399286032,-0.013439024798572063
1707663732753819400,11.4658193359375,0.014660755172371864,-0.007941242307424545,-0.0030543238390237093
1707663732770666500,11.48266650390625,0.009162971749901772,-0.006719512399286032,0.002443459117785096
1707663732787513300,11.499513427734374,0.0054977829568088055,-0.0054977829568088055,-0.010995565913617611
1707663732804360400,11.5163603515625,0.006719512399286032,-0.0054977829568088055,-0.018325943499803543
1707663732821207300,11.533207275390625,0.011606430634856224,-0.004276053514331579,-0.01282816007733345
1707663732838054400,11.550054443359375,0.01649334840476513,-0.006719512399286032,-0.020769402384757996
1707663732854901500,11.566901611328126,0.01954767294228077,-0.007330377586185932,-0.01588248461484909
1707663732871748400,11.583748291015626,0.018325943499803543,-0.007941242307424545,-0.006108647678047419
1707663732888595500,11.600595458984374,0.015271619893610477,-0.009162971749901772,-0.009773836471140385
1707663732905442300,11.6174423828125,0.011606430634856224,-0.007330377586185932,-0.015271619893610477
1707663732922289400,11.634289306640625,0.009773836471140385,-0.007941242307424545,-0.0030543238390237093
1707663732939136300,11.65113623046875,0.010384701192378998,-0.009162971749901772,-0.006108647678047419
1707663732955983400,11.6679833984375,0.010384701192378998,-0.006108647678047419,-0.009773836471140385
1707663732972830500,11.68483056640625,0.010995565913617611,-0.006719512399286032,-0.006108647678047419
1707663732989677300,11.70167724609375,0.009162971749901772,-0.0054977829568088055,-0.003665188793092966
1707663733006524400,11.7185244140625,0.006719512399286032,-0.0054977829568088055,-0.006719512399286032
1707663733023371300,11.735371337890625,0.0030543238390237093,-0.004886918235570192,-0.000610864779446274
1707663733040218400,11.75221826171875,0.001221729558892548,-0.003665188793092966,-0.001221729558892548
1707663733057065200,11.769065185546875,-0.000610864779446274,-0.002443459117785096,-0.001832594396546483
1707663733073912300,11.785912353515625,-0.002443459117785096,-0.003665188793092966,-0.006719512399286032
1707663733090759400,11.802759521484376,0.002443459117785096,-0.004276053514331579,-0.010384701192378998
1707663733107606300,11.819606201171876,0.006719512399286032,-0.0054977829568088055,-0.007941242307424545
1707663733124453400,11.836453369140624,0.009773836471140385,-0.006108647678047419,-0.010995565913617611
1707663733141300200,11.85330029296875,0.008552107028663158,-0.006108647678047419,-0.004276053514331579
1707663733158147300,11.870147216796875,0.006108647678047419,-0.006719512399286032,-0.003665188793092966
1707663733174994200,11.886994140625,-0.001221729558892548,-0.0054977829568088055,-0.010384701192378998
1707663733191841300,11.90384130859375,-0.002443459117785096,-0.004276053514331579,-0.007330377586185932
1707663733208688400,11.9206884765625,0.000610864779446274,-0.004276053514331579,-0.004276053514331579
1707663733225535200,11.93753515625,0.007330377586185932,-0.004886918235570192,-0.01588248461484909
1707663733242382300,11.95438232421875,0.012217295356094837,-0.007330377586185932,-0.013439024798572063
1707663733259229200,11.971229248046875,0.01282816007733345,-0.0054977829568088055,0.001221729558892548
1707663733276076300,11.988076171875,0.009162971749901772,-0.006719512399286032,-0.0054977829568088055
1707663733292923100,12.004923095703125,0.004276053514331579,-0.004276053514331579,0.001832594396546483
1707663733309770200,12.021770263671876,0.004886918235570192,-0.004276053514331579,-0.0030543238390237093
1707663733326617300,12.038617431640626,0.009162971749901772,-0.004276053514331579,-0.01649334840476513
1707663733343464200,12.055464111328124,0.017715077847242355,-0.0054977829568088055,-0.004276053514331579
1707663733360311300,12.072311279296875,0.020769402384757996,-0.007330377586185932,0.002443459117785096
1707663733377158100,12.089158203125,0.014049889519810677,-0.006108647678047419,-0.003665188793092966
1707663733394005200,12.106005126953125,0.004886918235570192,-0.004886918235570192,-0.004886918235570192
1707663733410852000,12.12285205078125,-0.000610864779446274,-0.003665188793092966,-0.011606430634856224
1707663733427699200,12.13969921875,-0.001832594396546483,-0.0030543238390237093,-0.021380268037319183
1707663733444546300,12.15654638671875,0.006719512399286032,-0.0054977829568088055,-0.008552107028663158
1707663733461393200,12.17339306640625,0.011606430634856224,-0.007941242307424545,-0.010384701192378998
1707663733478240300,12.190240234375,0.006719512399286032,-0.007330377586185932,-0.0054977829568088055
1707663733495087000,12.207087158203125,-0.0030543238390237093,-0.006108647678047419,-0.002443459117785096
1707663733511934200,12.223934326171875,-0.008552107028663158,-0.0054977829568088055,-0.003665188793092966
1707663733528781300,12.24078125,-0.009773836471140385,-0.0054977829568088055,-0.009162971749901772
1707663733545628200,12.257628173828126,0.001221729558892548,-0.007941242307424545,-0.009773836471140385
1707663733562475300,12.274475341796874,0.007330377586185932,-0.008552107028663158,0.0054977829568088055
1707663733579322000,12.291322021484374,0.008552107028663158,-0.007941242307424545,0.006108647678047419
1707663733596169200,12.308169189453125,0.001832594396546483,-0.006108647678047419,0.006719512399286032
1707663733613016300,12.325016357421875,-0.009162971749901772,-0.002443459117785096,-0.006719512399286032
1707663733629863200,12.34186328125,-0.010384701192378998,-0.0030543238390237093,-0.003665188793092966
1707663733646710300,12.358710205078125,-0.006108647678047419,-0.002443459117785096,0.000610864779446274
1707663733663557000,12.37555712890625,0.003665188793092966,-0.004276053514331579,-0.01282816007733345
1707663733680404200,12.392404296875,0.009773836471140385,-0.006108647678047419,-0.011606430634856224
1707663733697251300,12.409251220703124,0.013439024798572063,-0.007941242307424545,0.000610864779446274
1707663733714098200,12.42609814453125,0.006108647678047419,-0.006719512399286032,-0.001832594396546483
1707663733730945300,12.4429453125,-0.001221729558892548,-0.006108647678047419,-0.01588248461484909
1707663733747792100,12.459792236328125,-0.001221729558892548,-0.0054977829568088055,-0.001221729558892548
1707663733764639200,12.47663916015625,0.007941242307424545,-0.009162971749901772,0.001221729558892548
1707663733781486300,12.493486328125,0.01893680728971958,-0.010384701192378998,-0.028099779039621353
1707663733798333200,12.510333251953124,0.01893680728971958,-0.010384701192378998,-0.007330377586185932
1707663733815180300,12.52718017578125,0.013439024798572063,-0.010384701192378998,0.013439024798572063
1707663733832027400,12.54402734375,0,-0.007941242307424545,-0.003665188793092966
1707663733848874200,12.560874267578125,-0.000610864779446274,-0.006719512399286032,-0.011606430634856224
1707663733865721300,12.577721435546875,0.006108647678047419,-0.007941242307424545,-0.000610864779446274
1707663733882568200,12.594568115234376,0.014660755172371864,-0.008552107028663158,-0.010384701192378998
1707663733899415300,12.611415283203126,0.01954767294228077,-0.009773836471140385,-0.01649334840476513
1707663733916262100,12.62826220703125,0.018325943499803543,-0.008552107028663158,0.0054977829568088055
1707663733933109200,12.645109130859375,0.007330377586185932,-0.006108647678047419,0.0030543238390237093
1707663733949956400,12.661956298828125,-0.002443459117785096,-0.001221729558892548,-0.007330377586185932
1707663733966803200,12.67880322265625,-0.002443459117785096,0.000610864779446274,-0.021991131827235222
1707663733983650300,12.695650390625,0.002443459117785096,0.001832594396546483,-0.020769402384757996
1707663734000497400,12.712497314453126,0.011606430634856224,0.000610864779446274,-0.009773836471140385
1707663734017344300,12.72934423828125,0.01588248461484909,0.001221729558892548,-0.009773836471140385
1707663734034191400,12.74619140625,0.007330377586185932,0.001832594396546483,-0.003665188793092966
1707663734051038500,12.76303857421875,-0.0054977829568088055,0.004886918235570192,-0.021991131827235222
1707663734067885300,12.77988525390625,-0.008552107028663158,0.004886918235570192,-0.036651886999607086
1707663734084732400,12.796732421875,-0.001221729558892548,0.0030543238390237093,-0.014049889519810677
1707663734101579500,12.81357958984375,0.007941242307424545,-0.001832594396546483,-0.01954767294228077
1707663734118426400,12.83042626953125,0.01282816007733345,-0.003665188793092966,-0.012217295356094837
1707663734135273500,12.8472734375,0.003665188793092966,-0.003665188793092966,-0.020769402384757996
1707663734152120300,12.864120361328125,-0.001832594396546483,-0.004886918235570192,-0.01893680728971958
1707663734168967400,12.880967529296875,-0.006719512399286032,-0.004886918235570192,-0.010384701192378998
1707663734185814500,12.897814453125,-0.0030543238390237093,-0.007330377586185932,-0.014049889519810677
1707663734202661400,12.914661376953125,0.007941242307424545,-0.010384701192378998,-0.01649334840476513
1707663734219508500,12.931508544921876,0.011606430634856224,-0.010995565913617611,-0.014660755172371864
1707663734236355600,12.94835546875,0.007941242307424545,-0.010995565913617611,0.002443459117785096
1707663734253202400,12.965202392578124,-0.002443459117785096,-0.007941242307424545,-0.007330377586185932
1707663734270049500,12.982049560546875,-0.006719512399286032,-0.006108647678047419,0.000610864779446274
1707663734286896600,12.998896728515625,0,-0.007941242307424545,-0.01893680728971958
1707663734303743500,13.015743408203125,0.012217295356094837,-0.007941242307424545,-0.012217295356094837
1707663734320590600,13.032590576171875,0.013439024798572063,-0.006719512399286032,-0.001832594396546483
1707663734337437700,13.049437744140626,0.007330377586185932,-0.002443459117785096,0
1707663734354284500,13.066284423828124,0.006719512399286032,-0.004886918235570192,-0.021991131827235222
1707663734371131600,13.083131591796874,0.002443459117785096,-0.002443459117785096,-0.014660755172371864
1707663734387978800,13.099978759765625,0.004276053514331579,-0.003665188793092966,-0.015271619893610477
1707663734404825600,13.11682568359375,0.007941242307424545,-0.001832594396546483,-0.01282816007733345
1707663734421672700,13.133672607421875,0.014660755172371864,-0.002443459117785096,-0.031154103577136993
1707663734438519800,13.150519775390626,0.010995565913617611,-0.0054977829568088055,-0.0054977829568088055
1707663734455366700,13.16736669921875,-0.004886918235570192,0.001221729558892548,0.000610864779446274
1707663734472213800,13.1842138671875,0.002443459117785096,-0.004886918235570192,-0.028099779039621353
1707663734489060900,13.201060791015625,-0.0030543238390237093,-0.002443459117785096,-0.01893680728971958
1707663734505907700,13.21790771484375,0.010995565913617611,-0.004886918235570192,-0.004276053514331579
1707663734522754800,13.2347548828125,0.011606430634856224,-0.0054977829568088055,-0.01588248461484909
1707663734539602000,13.251601806640625,0.007941242307424545,-0.004886918235570192,-0.000610864779446274
1707663734556448800,13.26844873046875,0.009773836471140385,-0.006719512399286032,0.001832594396546483
1707663734573295900,13.2852958984375,0.006108647678047419,-0.004276053514331579,-0.013439024798572063
1707663734590143000,13.30214306640625,0.01649334840476513,-0.004886918235570192,-0.009773836471140385
1707663734606989800,13.31898974609375,0.01954767294228077,-0.003665188793092966,0.010995565913617611
1707663734623837000,13.3358369140625,0.025045456364750862,-0.006719512399286032,-0.003665188793092966
1707663734640684000,13.35268408203125,0.021380268037319183,-0.0054977829568088055,-0.007330377586185932
1707663734657531000,13.36953076171875,0.017715077847242355,-0.006719512399286032,0.006108647678047419
1707663734674378000,13.3863779296875,0.01954767294228077,-0.007941242307424545,-0.007330377586185932
1707663734691225000,13.40322509765625,0.025045456364750862,-0.008552107028663158,0.006719512399286032
1707663734708072000,13.420072021484375,0.033597562462091446,-0.015271619893610477,-0.012217295356094837
1707663734724919000,13.4369189453125,0.0256563201546669,-0.012217295356094837,-0.01282816007733345
1707663734741766100,13.45376611328125,0.023823726922273636,-0.01282816007733345,0.017104214057326317
1707663734758613200,13.47061328125,0.017104214057326317,-0.012217295356094837,-0.03176496922969818
1707663734775460000,13.487460205078126,0.01954767294228077,-0.011606430634856224,-0.021991131827235222
1707663734792307200,13.50430712890625,0.02260199747979641,-0.011606430634856224,-0.0054977829568088055
1707663734809154300,13.521154296875,0.01954767294228077,-0.010384701192378998,-0.004886918235570192
1707663734826001400,13.53800146484375,0.011606430634856224,-0.007330377586185932,-0.01282816007733345
1707663734842848300,13.55484814453125,0.002443459117785096,-0.0054977829568088055,-0.007941242307424545
1707663734859695400,13.5716953125,-0.009773836471140385,-0.002443459117785096,-0.015271619893610477
1707663734876542500,13.58854248046875,-0.015271619893610477,0,-0.030543239787220955
1707663734893389300,13.605389404296876,-0.010995565913617611,0.000610864779446274,0.004886918235570192
1707663734910236400,13.622236328125,-0.011606430634856224,0,0.003665188793092966
1707663734927083500,13.63908349609375,-0.029932374134659767,0.006719512399286032,-0.04520399495959282
1707663734943930600,13.6559306640625,-0.03787361457943916,0.009162971749901772,-0.0030543238390237093
1707663734960777500,13.672777587890625,-0.037262752652168274,0.010384701192378998,0.03909534588456154
1707663734977624600,13.68962451171875,-0.033597562462091446,0.009162971749901772,-0.03298669680953026
1707663734994471700,13.7064716796875,-0.03298669680953026,0.009773836471140385,-0.021991131827235222
1707663735011318500,13.723318603515626,-0.03298669680953026,0.009162971749901772,0.04153880476951599
1707663735028165600,13.74016552734375,-0.03237583488225937,0.007330377586185932,-0.004276053514331579
1707663735045012700,13.7570126953125,-0.033597562462091446,0.006719512399286032,-0.01282816007733345
1707663735061859800,13.77385986328125,-0.023212861269712448,0.001832594396546483,0.014049889519810677
1707663735078706700,13.790706787109375,-0.021991131827235222,0.003665188793092966,-0.004276053514331579
1707663735095553800,13.8075537109375,-0.013439024798572063,-0.001221729558892548,-0.01282816007733345
1707663735112401000,13.82440087890625,-0.006108647678047419,-0.004886918235570192,0.012217295356094837
1707663735129248000,13.841248046875,-0.0054977829568088055,-0.0054977829568088055,-0.01649334840476513
1707663735146094800,13.8580947265625,-0.001221729558892548,-0.0054977829568088055,-0.01282816007733345
1707663735162942000,13.87494189453125,0.002443459117785096,-0.006719512399286032,0.001221729558892548
1707663735179789000,13.8917890625,0.013439024798572063,-0.008552107028663158,-0.03176496922969818
1707663735196636000,13.908635986328125,0.017715077847242355,-0.009162971749901772,-0.011606430634856224
1707663735213483000,13.92548291015625,0.01893680728971958,-0.008552107028663158,-0.009162971749901772
1707663735230330000,13.942330078125,0.017104214057326317,-0.006108647678047419,0.007941242307424545
1707663735247177200,13.95917724609375,0.020769402384757996,-0.0054977829568088055,-0.06108647957444191
1707663735264024300,13.9760244140625,0.026878049597144127,-0.008552107028663158,0.004276053514331579
1707663735280871200,13.99287109375,0.025045456364750862,-0.008552107028663158,0.014049889519810677
1707663735297718300,14.00971826171875,0.020158538594841957,-0.007941242307424545,-0.021380268037319183
1707663735314565400,14.0265654296875,0.01282816007733345,-0.004276053514331579,-0.01893680728971958
1707663735331412500,14.04341259765625,0.01282816007733345,-0.006719512399286032,-0.000610864779446274
1707663735348259300,14.06025927734375,0.012217295356094837,-0.004886918235570192,-0.012217295356094837
1707663735365106400,14.0771064453125,0.01588248461484909,-0.007330377586185932,-0.010995565913617611
1707663735381953500,14.09395361328125,0.010384701192378998,-0.006719512399286032,-0.002443459117785096
1707663735398800600,14.110800537109375,0.004886918235570192,-0.003665188793092966,-0.01282816007733345
1707663735415647700,14.127647705078125,0.008552107028663158,-0.0054977829568088055,-0.017104214057326317
1707663735432494600,14.14449462890625,0.004886918235570192,-0.002443459117785096,-0.0030543238390237093
1707663735449341700,14.161341796875,0.007941242307424545,-0.003665188793092966,-0.007941242307424545
1707663735466188800,14.178188720703124,0.009773836471140385,-0.004886918235570192,-0.017715077847242355
1707663735483036000,14.195035888671875,0.0030543238390237093,-0.001221729558892548,0.007941242307424545
1707663735499882800,14.2118828125,-0.002443459117785096,-0.001832594396546483,-0.011606430634856224
1707663735516729900,14.228729736328125,-0.010384701192378998,0.000610864779446274,-0.014049889519810677
1707663735533577000,14.245576904296875,-0.0030543238390237093,-0.002443459117785096,0.006108647678047419
1707663735550424000,14.262424072265626,0.000610864779446274,-0.002443459117785096,-0.028099779039621353
1707663735567271200,14.279271240234374,0.001832594396546483,-0.0030543238390237093,-0.001832594396546483
1707663735584118000,14.296117919921874,-0.001832594396546483,-0.001832594396546483,0.0054977829568088055
1707663735600965000,14.312965087890625,-0.006719512399286032,0.000610864779446274,-0.01893680728971958
1707663735617812200,14.329812255859375,0.004886918235570192,-0.003665188793092966,-0.01588248461484909
1707663735634659300,14.346659423828125,0.011606430634856224,-0.004886918235570192,0.007330377586185932
1707663735651506400,14.36350634765625,0.01588248461484909,-0.0054977829568088055,0
1707663735668353500,14.380353515625,0.013439024798572063,-0.003665188793092966,-0.003665188793092966
1707663735685200400,14.397200439453124,0.014660755172371864,-0.0030543238390237093,0.0054977829568088055
1707663735702047500,14.414047607421875,0.010384701192378998,0.000610864779446274,-0.004886918235570192
1707663735718894600,14.43089453125,0.01649334840476513,-0.000610864779446274,0.010384701192378998
1707663735735741700,14.44774169921875,0.023823726922273636,-0.004276053514331579,-0.014660755172371864
1707663735752588800,14.4645888671875,0.021380268037319183,-0.001221729558892548,0.011606430634856224
1707663735769435600,14.481435546875,0.020158538594841957,-0.003665188793092966,0.010384701192378998
1707663735786282800,14.49828271484375,0.010384701192378998,-0.004276053514331579,-0.006719512399286032
1707663735803129900,14.5151298828125,0.007330377586185932,-0.002443459117785096,-0.010995565913617611
1707663735819977000,14.53197705078125,0.024434590712189674,-0.008552107028663158,0.007941242307424545
1707663735836824000,14.548823974609375,0.017104214057326317,-0.008552107028663158,-0.009162971749901772
1707663735853671200,14.565671142578125,0.010384701192378998,-0.007330377586185932,-0.023212861269712448
1707663735870518300,14.582518310546876,0.003665188793092966,-0.009773836471140385,-0.01282816007733345
1707663735887365000,14.599365234375,0.000610864779446274,-0.009773836471140385,-0.003665188793092966
1707663735904212200,14.616212158203124,0.014049889519810677,-0.01282816007733345,-0.026878049597144127
1707663735921059300,14.633059326171875,0.01954767294228077,-0.014049889519810677,-0.011606430634856224
1707663735937906400,14.649906494140625,0.017104214057326317,-0.015271619893610477,-0.0054977829568088055
1707663735954753500,14.66675341796875,0.010384701192378998,-0.01282816007733345,-0.03237583488225937
1707663735971600600,14.6836005859375,0.010384701192378998,-0.009162971749901772,0.000610864779446274
1707663735988447700,14.70044775390625,0.017715077847242355,-0.011606430634856224,-0.004276053514331579
1707663736005294600,14.717294677734374,0.009162971749901772,-0.004886918235570192,-0.0030543238390237093
1707663736022141700,14.7341416015625,0.004276053514331579,-0.000610864779446274,-0.023823726922273636
1707663736038988800,14.75098876953125,0.008552107028663158,-0.0030543238390237093,-0.003665188793092966
1707663736055836000,14.7678359375,0.004276053514331579,0,0.003665188793092966
1707663736072683000,14.78468310546875,0.004276053514331579,-0.001221729558892548,0.02932151034474373
1707663736089530000,14.801530029296876,-0.0030543238390237093,0.002443459117785096,-0.01954767294228077
1707663736106377200,14.818377197265624,0.0054977829568088055,-0.001221729558892548,-0.033597562462091446
1707663736123224300,14.835224365234374,0.007330377586185932,-0.002443459117785096,0.04520399495959282
1707663736140071200,14.8520712890625,0.007330377586185932,-0.004886918235570192,-0.008552107028663158
1707663736156918300,14.868918212890625,0.007330377586185932,-0.004276053514331579,-0.006108647678047419
1707663736173765400,14.885765380859375,0.003665188793092966,-0.007941242307424545,-0.003665188793092966
1707663736190612500,14.902612548828126,0.006719512399286032,-0.009162971749901772,0.010384701192378998
1707663736207459600,14.91945947265625,0.007941242307424545,-0.006108647678047419,-0.028099779039621353
1707663736224306700,14.936306640625,0.013439024798572063,-0.012217295356094837,-0.007941242307424545
1707663736241153800,14.95315380859375,0.000610864779446274,-0.004886918235570192,0.014049889519810677
1707663736258001000,14.9700009765625,0.002443459117785096,-0.006108647678047419,-0.017715077847242355
1707663736274848000,14.986847900390625,0.009162971749901772,-0.004886918235570192,-0.015271619893610477
1707663736291695000,15.003695068359375,0.009162971749901772,-0.004886918235570192,0.006719512399286032
1707663736308542000,15.0205419921875,0.012217295356094837,-0.004886918235570192,-0.020158538594841957
1707663736325389000,15.03738916015625,0.014660755172371864,-0.004886918235570192,-0.0256563201546669
1707663736342236200,15.054236083984375,0.015271619893610477,-0.010384701192378998,0.010384701192378998
1707663736359083300,15.071083251953125,0.007941242307424545,-0.003665188793092966,0.004276053514331579
1707663736375930400,15.087930419921875,0.015271619893610477,-0.004276053514331579,-0.03787361457943916
1707663736392777500,15.104777587890625,0.010384701192378998,-0.001832594396546483,-0.034208428114652634
1707663736409624600,15.12162451171875,0.017715077847242355,-0.004886918235570192,0.017715077847242355
1707663736426471700,15.1384716796875,0.011606430634856224,-0.002443459117785096,0.002443459117785096
1707663736443318800,15.15531884765625,0.010384701192378998,-0.003665188793092966,-0.03543015569448471
1707663736460166000,15.172165771484375,0.010384701192378998,-0.000610864779446274,-0.01282816007733345
1707663736477013000,15.189012939453125,0.01954767294228077,-0.0030543238390237093,0.008552107028663158
1707663736493860000,15.205860107421875,0.01649334840476513,-0.001221729558892548,-0.020158538594841957
1707663736510707200,15.222707275390626,0.015271619893610477,-0.0030543238390237093,-0.01649334840476513
1707663736527554300,15.23955419921875,0.020769402384757996,-0.003665188793092966,0.010384701192378998
1707663736544401400,15.2564013671875,0.02260199747979641,-0.003665188793092966,-0.009773836471140385
1707663736561248500,15.27324853515625,0.023212861269712448,-0.004276053514331579,-0.0513126403093338
1707663736578095600,15.290095703125,0.027488915249705315,-0.006108647678047419,0.02260199747979641
1707663736594942700,15.306942626953125,0.027488915249705315,-0.007941242307424545,-0.001221729558892548
1707663736611789800,15.323789794921876,0.02626718580722809,-0.008552107028663158,-0.0409279391169548
1707663736628637000,15.340636962890626,0.02871064469218254,-0.012217295356094837,0.024434590712189674
1707663736645484000,15.357484130859374,0.02626718580722809,-0.011606430634856224,-0.002443459117785096
1707663736662331100,15.3743310546875,0.021991131827235222,-0.01282816007733345,-0.034208428114652634
1707663736679178000,15.391177978515625,0.017104214057326317,-0.012217295356094837,0.02260199747979641
1707663736696025300,15.408025390625,0.01282816007733345,-0.009773836471140385,0.001221729558892548
1707663736712872400,15.42487255859375,0.007941242307424545,-0.009773836471140385,-0.0256563201546669
1707663736729719300,15.44171923828125,0.004886918235570192,-0.009773836471140385,0.011606430634856224
1707663736746566700,15.458566650390624,-0.003665188793092966,-0.0054977829568088055,0.01588248461484909
1707663736763413500,15.47541357421875,0.000610864779446274,-0.0030543238390237093,-0.014049889519810677
1707663736780260900,15.4922607421875,-0.009773836471140385,0,0.011606430634856224
1707663736797108000,15.50910791015625,-0.01282816007733345,0.0030543238390237093,0.0054977829568088055
1707663736813954800,15.525954833984375,-0.007941242307424545,0.004886918235570192,-0.01282816007733345
1707663736830802200,15.54280224609375,-0.010995565913617611,0.0054977829568088055,0.012217295356094837
1707663736847649000,15.55964892578125,-0.01282816007733345,0.008552107028663158,0.009773836471140385
1707663736864496400,15.576496337890624,-0.013439024798572063,0.009773836471140385,-0.010384701192378998
1707663736881343500,15.593343505859375,-0.017715077847242355,0.009162971749901772,-0.009773836471140385
1707663736898190600,15.610190673828125,-0.014660755172371864,0.007941242307424545,0.01649334840476513
1707663736915037700,15.62703759765625,-0.009162971749901772,0.0054977829568088055,0.010995565913617611
1707663736931884800,15.643884765625,-0.013439024798572063,0.006108647678047419,-0.029932374134659767
1707663736948732000,15.66073193359375,-0.007330377586185932,0.001221729558892548,-0.006719512399286032
1707663736965579000,15.6775791015625,-0.001832594396546483,-0.001221729558892548,0.020158538594841957
1707663736982426000,15.694426025390625,-0.003665188793092966,-0.001832594396546483,-0.011606430634856224
1707663736999273200,15.711273193359375,-0.001221729558892548,-0.0030543238390237093,-0.004886918235570192
1707663737016120300,15.728120361328125,0.006108647678047419,-0.006719512399286032,-0.006719512399286032
1707663737032967400,15.744967529296876,0.013439024798572063,-0.009773836471140385,0.006108647678047419
1707663737049814500,15.761814453125,0.020158538594841957,-0.009162971749901772,0.004276053514331579
1707663737066661600,15.77866162109375,0.017715077847242355,-0.010384701192378998,-0.025045456364750862
1707663737083508700,15.7955087890625,0.014049889519810677,-0.007941242307424545,-0.004886918235570192
1707663737100355800,15.81235595703125,0.01893680728971958,-0.008552107028663158,-0.001832594396546483
1707663737117203000,15.829202880859375,0.020158538594841957,-0.007941242307424545,-0.021380268037319183
1707663737134050000,15.846050048828126,0.02626718580722809,-0.009773836471140385,-0.010384701192378998
1707663737150897200,15.862897216796876,0.021991131827235222,-0.004886918235570192,-0.011606430634856224
1707663737167744300,15.879744140625,0.02260199747979641,-0.006719512399286032,-0.030543239787220955
1707663737184591400,15.89659130859375,0.027488915249705315,-0.008552107028663158,-0.03481929376721382
1707663737201438500,15.9134384765625,0.0360410213470459,-0.012217295356094837,0.025045456364750862
1707663737218285800,15.930285888671875,0.033597562462091446,-0.009162971749901772,-0.025045456364750862
1707663737235132700,15.947132568359375,0.029932374134659767,-0.009773836471140385,-0.0360410213470459
1707663737251980000,15.96397998046875,0.024434590712189674,-0.010995565913617611,-0.023823726922273636
1707663737268827100,15.9808271484375,0.021991131827235222,-0.007941242307424545,0.006108647678047419
1707663737285674200,15.99767431640625,0.021991131827235222,-0.009162971749901772,-0.03176496922969818
1707663737302521300,16.014521240234377,0.014049889519810677,-0.007330377586185932,-0.006108647678047419
1707663737319368400,16.031368408203125,0.004276053514331579,-0.003665188793092966,-0.0054977829568088055
1707663737336215600,16.048215576171874,-0.000610864779446274,-0.003665188793092966,-0.03237583488225937
1707663737353062700,16.065062744140626,-0.004276053514331579,-0.003665188793092966,-0.010384701192378998
1707663737369909800,16.08190966796875,-0.015271619893610477,0.000610864779446274,0.017715077847242355
1707663737386756900,16.0987568359375,-0.01649334840476513,0.001832594396546483,-0.01649334840476513
1707663737403604000,16.11560400390625,-0.024434590712189674,0.004886918235570192,-0.043982263654470444
1707663737420451300,16.132451416015623,-0.01649334840476513,0.001832594396546483,0.0360410213470459
1707663737437298400,16.14929833984375,-0.020769402384757996,0.0030543238390237093,0.02260199747979641
1707663737454145500,16.1661455078125,-0.01893680728971958,0.004276053514331579,-0.0256563201546669
1707663737470992600,16.18299267578125,-0.017715077847242355,0.003665188793092966,-0.006108647678047419
1707663737487839700,16.19983984375,-0.018325943499803543,0.008552107028663158,0.03298669680953026
1707663737504686800,16.216686767578125,-0.011606430634856224,0.0054977829568088055,-0.003665188793092966
1707663737521534000,16.233533935546873,-0.012217295356094837,0.007330377586185932,-0.001221729558892548
1707663737538381000,16.250381103515625,-0.011606430634856224,0.007941242307424545,0.0409279391169548
1707663737555228200,16.267228271484374,-0.014049889519810677,0.009162971749901772,-0.026878049597144127
1707663737572075500,16.284075439453126,-0.011606430634856224,0.008552107028663158,0.002443459117785096
1707663737588922600,16.300922607421874,-0.008552107028663158,0.009773836471140385,0.024434590712189674
1707663737605769700,16.317769775390627,-0.001221729558892548,0.004886918235570192,0.009162971749901772
1707663737622616800,16.334616943359375,-0.013439024798572063,0.007941242307424545,-0.017104214057326317
1707663737639464000,16.3514638671875,-0.006108647678047419,0.0030543238390237093,-0.013439024798572063
1707663737656311000,16.36831103515625,-0.0030543238390237093,0.000610864779446274,-0.000610864779446274
1707663737673158100,16.385158203125,-0.001832594396546483,-0.001832594396546483,-0.017104214057326317
1707663737690005500,16.402005615234376,0.0054977829568088055,-0.004886918235570192,0.001832594396546483
1707663737706852600,16.4188525390625,0.006719512399286032,-0.0054977829568088055,-0.01649334840476513
1707663737723699700,16.43569970703125,0.011606430634856224,-0.014049889519810677,-0.0360410213470459
1707663737740546800,16.452546875,0.007941242307424545,-0.009162971749901772,0.000610864779446274
1707663737757394000,16.469393798828126,0.01954767294228077,-0.014049889519810677,0.000610864779446274
1707663737774241000,16.486240966796874,0.013439024798572063,-0.013439024798572063,-0.043982263654470444
1707663737791088400,16.50308837890625,0.020769402384757996,-0.010995565913617611,0.0054977829568088055
1707663737807935500,16.519935546875,0.020769402384757996,-0.012217295356094837,-0.017104214057326317
1707663737824782600,16.536782470703123,0.011606430634856224,-0.010995565913617611,-0.024434590712189674
1707663737841629700,16.553629638671875,0.01588248461484909,-0.006108647678047419,0.01588248461484909
1707663737858476800,16.570476806640624,0.017104214057326317,-0.006719512399286032,0.006719512399286032
1707663737875324000,16.587323974609376,0.014049889519810677,-0.0054977829568088055,-0.0409279391169548
1707663737892171000,16.6041708984375,0.011606430634856224,-0.000610864779446274,0.002443459117785096
1707663737909018400,16.621018310546877,0.017715077847242355,-0.001221729558892548,0.02932151034474373
1707663737925865500,16.637865478515625,0.007941242307424545,-0.001221729558892548,-0.011606430634856224
1707663737942712600,16.654712646484374,0.003665188793092966,0.002443459117785096,-0.010995565913617611
1707663737959559700,16.6715595703125,0.013439024798572063,-0.001221729558892548,0.01282816007733345
1707663737976406800,16.68840673828125,0.004276053514331579,0,-0.009162971749901772
1707663737993254100,16.705254150390626,-0.001221729558892548,0.000610864779446274,-0.01588248461484909
1707663738010101200,16.722101318359375,-0.006108647678047419,0.001221729558892548,0.03543015569448471
1707663738026948400,16.7389482421875,-0.013439024798572063,0.002443459117785096,-0.024434590712189674
1707663738043795500,16.75579541015625,-0.012217295356094837,0.001832594396546483,-0.03298669680953026
1707663738060642600,16.772642578125,-0.01282816007733345,0,0.036651886999607086
1707663738077490000,16.789489990234376,-0.023212861269712448,0,-0.039706211537122726
1707663738094337000,16.8063369140625,-0.02932151034474373,0.001832594396546483,-0.04520399495959282
1707663738111184100,16.82318408203125,-0.023212861269712448,0.000610864779446274,0.040317077189683914
1707663738128031200,16.84003125,-0.012217295356094837,-0.0030543238390237093,-0.02932151034474373
1707663738144878600,16.856878662109374,-0.01893680728971958,0.000610864779446274,-0.03909534588456154
1707663738161725700,16.8737255859375,-0.009773836471140385,-0.001221729558892548,0.020158538594841957
1707663738178572800,16.89057275390625,-0.008552107028663158,-0.001221729558892548,-0.006108647678047419
1707663738195420000,16.907419921875,-0.004276053514331579,-0.001832594396546483,-0.027488915249705315
1707663738212267000,16.92426708984375,0.006108647678047419,-0.004276053514331579,0.012217295356094837
1707663738229114400,16.9411142578125,0.009773836471140385,-0.001221729558892548,0.017715077847242355
1707663738245961500,16.95796142578125,0.021380268037319183,-0.0054977829568088055,-0.0360410213470459
1707663738262808600,16.97480859375,0.017104214057326317,-0.004276053514331579,-0.009773836471140385
1707663738279655700,16.99165576171875,0.02871064469218254,-0.007941242307424545,0.06108647957444191
1707663738296502800,17.008502685546876,0.02871064469218254,-0.009162971749901772,-0.04276053607463837
1707663738313350100,17.02535009765625,0.031154103577136993,-0.012217295356094837,-0.014660755172371864
1707663738330197200,17.042197265625,0.0256563201546669,-0.009162971749901772,0.029932374134659767
1707663738347044400,17.05904443359375,0.03298669680953026,-0.01282816007733345,-0.020769402384757996
1707663738363891500,17.075891357421874,0.028099779039621353,-0.013439024798572063,-0.040317077189683914
1707663738380738800,17.09273876953125,0.027488915249705315,-0.013439024798572063,0.030543239787220955
1707663738397586000,17.1095859375,0.031154103577136993,-0.014049889519810677,-0.007941242307424545
1707663738414433000,17.12643310546875,0.024434590712189674,-0.013439024798572063,-0.05070177838206291
1707663738431280000,17.143280029296875,0.031154103577136993,-0.014660755172371864,0.014049889519810677
1707663738448127500,17.16012744140625,0.027488915249705315,-0.014049889519810677,0.010995565913617611
1707663738464974600,17.176974609375,0.020769402384757996,-0.01282816007733345,-0.043371398001909256
1707663738481821700,17.19382177734375,0.012217295356094837,-0.006108647678047419,0.002443459117785096
1707663738498668800,17.210668701171876,0.014660755172371864,-0.008552107028663158,0.015271619893610477
1707663738515516200,17.22751611328125,0.0054977829568088055,-0.003665188793092966,-0.03848448023200035
1707663738532363300,17.24436328125,-0.001221729558892548,-0.001221729558892548,-0.03543015569448471
1707663738549210400,17.26121044921875,0.006108647678047419,-0.001832594396546483,0.008552107028663158
1707663738566057500,17.278057373046874,-0.001221729558892548,-0.000610864779446274,0.001832594396546483
1707663738582904800,17.29490478515625,-0.014660755172371864,0.006108647678047419,-0.053756099194288254
1707663738599752000,17.311751953125,-0.006108647678047419,0.001221729558892548,-0.002443459117785096
1707663738616599000,17.32859912109375,0.001832594396546483,-0.0030543238390237093,0.003665188793092966
1707663738633446400,17.3454462890625,-0.001832594396546483,-0.001832594396546483,-0.03176496922969818
1707663738650293500,17.36229345703125,-0.004276053514331579,-0.000610864779446274,0.006719512399286032
1707663738667140600,17.379140625,-0.008552107028663158,-0.002443459117785096,-0.001832594396546483
1707663738683987700,17.39598779296875,-0.010995565913617611,-0.001832594396546483,-0.017104214057326317
1707663738700835000,17.4128349609375,-0.011606430634856224,-0.003665188793092966,0.004276053514331579
1707663738717682200,17.42968212890625,-0.01282816007733345,-0.004276053514331579,0.02871064469218254
1707663738734529300,17.446529296875,-0.020769402384757996,0,-0.011606430634856224
1707663738751376400,17.46337646484375,-0.007330377586185932,-0.004276053514331579,-0.010384701192378998
1707663738768223700,17.4802236328125,-0.008552107028663158,-0.0030543238390237093,0.007330377586185932
1707663738785070800,17.49707080078125,-0.010384701192378998,-0.001832594396546483,-0.004886918235570192
1707663738801918000,17.51391796875,-0.002443459117785096,-0.001832594396546483,0.009162971749901772
1707663738818765300,17.530765380859375,0.004276053514331579,-0.004886918235570192,0.018325943499803543
1707663738835612400,17.5476123046875,-0.003665188793092966,0.000610864779446274,-0.03298669680953026
1707663738852459500,17.56445947265625,0.000610864779446274,0.000610864779446274,-0.020769402384757996
1707663738869306600,17.581306640625,0.009162971749901772,0,0.007330377586185932
1707663738886154000,17.598154052734376,0.01282816007733345,-0.001832594396546483,-0.02260199747979641
1707663738903001000,17.6150009765625,0.007941242307424545,0.0030543238390237093,-0.013439024798572063
1707663738919848200,17.63184814453125,0.010995565913617611,0.003665188793092966,-0.02260199747979641
1707663738936695600,17.648695556640625,0.009162971749901772,0.000610864779446274,-0.026878049597144127
1707663738953542700,17.665542724609374,0.009773836471140385,0.0054977829568088055,-0.015271619893610477
1707663738970389800,17.6823896484375,0.021380268037319183,0.000610864779446274,-0.015271619893610477
1707663738987237000,17.699237060546874,0.011606430634856224,0.002443459117785096,-0.010995565913617611
1707663739004084200,17.716084228515626,0.002443459117785096,0.004276053514331579,-0.01893680728971958
1707663739020931300,17.732931396484375,0.0030543238390237093,0.004886918235570192,-0.017104214057326317
1707663739037778700,17.74977880859375,0.0030543238390237093,0.004886918235570192,-0.033597562462091446
1707663739054625800,17.766625732421875,0.006719512399286032,0.002443459117785096,0.004276053514331579
1707663739071473000,17.783472900390624,0.004276053514331579,0.0054977829568088055,0.018325943499803543
1707663739088320300,17.8003203125,0.0054977829568088055,0.003665188793092966,-0.02626718580722809
1707663739105167400,17.81716748046875,-0.003665188793092966,0.006719512399286032,-0.015271619893610477
1707663739122014500,17.834014404296877,0.003665188793092966,0.006719512399286032,0.0256563201546669
1707663739138861800,17.85086181640625,0,0.012217295356094837,-0.01282816007733345
1707663739155709000,17.867708984375,0,0.01588248461484909,-0.017104214057326317
1707663739172556000,17.88455615234375,0.003665188793092966,0.01649334840476513,0.05253437161445618
1707663739189403100,17.901403076171874,-0.004276053514331579,0.020769402384757996,-0.009773836471140385
1707663739206250500,17.91825048828125,-0.004276053514331579,0.021991131827235222,-0.04825831577181816
1707663739223097600,17.93509765625,-0.006108647678047419,0.0256563201546669,0.03481929376721382
1707663739239944700,17.95194482421875,0.003665188793092966,0.021991131827235222,0.033597562462091446
1707663739256792000,17.9687919921875,0,0.023823726922273636,-0.031154103577136993
1707663739273639200,17.98563916015625,0.003665188793092966,0.021380268037319183,-0.028099779039621353
1707663739290486300,18.002486328125,0.003665188793092966,0.018325943499803543,0.015271619893610477
1707663739307333600,18.019333740234377,0.002443459117785096,0.017715077847242355,0
1707663739324180700,18.0361806640625,0.008552107028663158,0.010995565913617611,-0.02932151034474373
1707663739341027800,18.05302783203125,0.01588248461484909,0.007330377586185932,0.006108647678047419
1707663739357875200,18.069875244140626,0.014049889519810677,0.007330377586185932,-0.013439024798572063
1707663739374722300,18.086722412109374,0.008552107028663158,0.009773836471140385,-0.04153880476951599
1707663739391569700,18.103569580078126,0.003665188793092966,0.007330377586185932,0.01588248461484909
1707663739408416800,18.120416748046875,0.010384701192378998,0.004276053514331579,-0.017715077847242355
1707663739425263900,18.137263916015623,0.011606430634856224,0.001832594396546483,-0.03909534588456154
1707663739442111200,18.154111328125,0.01893680728971958,0.002443459117785096,-0.003665188793092966
1707663739458958300,18.170958251953124,0.02626718580722809,-0.000610864779446274,0.033597562462091446
1707663739475805400,18.187805419921876,0.013439024798572063,0.007330377586185932,-0.021991131827235222
1707663739492652800,18.20465283203125,0.003665188793092966,0.010995565913617611,-0.013439024798572063
1707663739509500000,18.2215,0.004886918235570192,0.014049889519810677,0.002443459117785096
1707663739526347000,18.238346923828125,0.013439024798572063,0.015271619893610477,0.0256563201546669
1707663739543194400,18.2551943359375,0.015271619893610477,0.014660755172371864,0.01649334840476513
1707663739560041500,18.27204150390625,0.007330377586185932,0.020158538594841957,-0.021380268037319183
1707663739576888600,18.288888671875,0.007941242307424545,0.020769402384757996,0.007941242307424545
1707663739593736000,18.30573583984375,0.010384701192378998,0.017715077847242355,0.021991131827235222
1707663739610583000,18.3225830078125,0.010995565913617611,0.017715077847242355,-0.001832594396546483
1707663739627430100,18.33943017578125,0.023823726922273636,0.013439024798572063,-0.015271619893610477
1707663739644277500,18.356277587890624,0.020769402384757996,0.008552107028663158,-0.0256563201546669
1707663739661124600,18.37312451171875,0.01649334840476513,0.006719512399286032,0.007330377586185932
1707663739677972000,18.389971923828124,0.017104214057326317,0.004276053514331579,-0.03237583488225937
1707663739694819000,18.406819091796876,0.013439024798572063,0.000610864779446274,-0.04276053607463837
1707663739711666200,18.423666259765625,0.006719512399286032,0.000610864779446274,-0.023823726922273636
1707663739728513500,18.440513427734373,0.01282816007733345,-0.001832594396546483,-0.01954767294228077
1707663739745360600,18.457360595703125,0.010384701192378998,-0.001221729558892548,-0.0409279391169548
1707663739762207700,18.474207763671874,-0.004886918235570192,0.004276053514331579,-0.03848448023200035
1707663739779055000,18.49105517578125,-0.010995565913617611,0.004886918235570192,-0.01893680728971958
1707663739795902200,18.507902099609375,-0.017104214057326317,0.007941242307424545,-0.033597562462091446
1707663739812749300,18.524749267578127,-0.0054977829568088055,0.007330377586185932,-0.040317077189683914
1707663739829596700,18.5415966796875,-0.006108647678047419,0.012217295356094837,-0.0030543238390237093
1707663739846443800,18.55844384765625,0.001832594396546483,0.010384701192378998,-0.037262752652168274
1707663739863291100,18.575291015625,0.001832594396546483,0.014049889519810677,0.000610864779446274
1707663739880138200,18.59213818359375,-0.0054977829568088055,0.01954767294228077,-0.0054977829568088055
1707663739896985300,18.6089853515625,-0.001221729558892548,0.01893680728971958,-0.021991131827235222
1707663739913832700,18.625832763671873,0.003665188793092966,0.020769402384757996,-0.011606430634856224
1707663739930679800,18.6426796875,0.017715077847242355,0.020158538594841957,0.026878049597144127
1707663739947527000,18.65952685546875,0.013439024798572063,0.01954767294228077,-0.000610864779446274
1707663739964374300,18.676374267578126,0.007941242307424545,0.01954767294228077,-0.01588248461484909
1707663739981221400,18.693221435546874,0.001221729558892548,0.023823726922273636,0.03481929376721382
1707663739998068700,18.71006884765625,0.006719512399286032,0.01893680728971958,-0.000610864779446274
1707663740014915800,18.726915771484375,0.004276053514331579,0.020158538594841957,-0.0256563201546669
1707663740031763000,18.743762939453124,0.012217295356094837,0.014660755172371864,0.02871064469218254
1707663740048610300,18.7606103515625,0.01282816007733345,0.009162971749901772,0.013439024798572063
1707663740065457400,18.77745751953125,0.011606430634856224,0.008552107028663158,-0.03909534588456154
1707663740082304500,18.794304443359376,0.012217295356094837,0.006108647678047419,0.007941242307424545
1707663740099152000,18.81115185546875,0.007941242307424545,0.003665188793092966,0.011606430634856224
1707663740115999000,18.8279990234375,0.014660755172371864,0,-0.01588248461484909
1707663740132846300,18.844846435546874,0.02932151034474373,-0.006719512399286032,-0.01588248461484909
1707663740149693400,18.861693359375,0.027488915249705315,-0.004276053514331579,-0.014660755172371864
1707663740166540500,18.87854052734375,0.021380268037319183,-0.002443459117785096,0.01282816007733345
1707663740183388000,18.895387939453126,0.012217295356094837,0.000610864779446274,-0.027488915249705315
1707663740200235000,18.912235107421875,0.013439024798572063,0.004276053514331579,-0.014660755172371864
1707663740217082400,18.929082275390623,0.015271619893610477,0.004886918235570192,0.003665188793092966
1707663740233929500,18.945929443359375,0.01649334840476513,0.008552107028663158,-0.01282816007733345
1707663740250776600,18.962776611328124,0.013439024798572063,0.01282816007733345,-0.025045456364750862
1707663740267624000,18.9796240234375,0.01282816007733345,0.01588248461484909,-0.007941242307424545
1707663740284471000,18.996470947265625,0.011606430634856224,0.017104214057326317,0.012217295356094837
1707663740301318100,19.013318115234377,0.014049889519810677,0.01588248461484909,-0.04214967042207718
1707663740318165500,19.03016552734375,0.017715077847242355,0.01649334840476513,-0.02626718580722809
1707663740335012600,19.0470126953125,0.014049889519810677,0.01649334840476513,0.013439024798572063
1707663740351860000,19.06385986328125,0.011606430634856224,0.01588248461484909,-0.012217295356094837
1707663740368707000,19.08070703125,0.006719512399286032,0.017715077847242355,-0.0409279391169548
1707663740385554200,19.09755419921875,0.008552107028663158,0.01649334840476513,0.003665188793092966
1707663740402401500,19.114401611328127,0.010384701192378998,0.014049889519810677,-0.024434590712189674
1707663740419248600,19.13124853515625,0.004276053514331579,0.01282816007733345,-0.006719512399286032
1707663740436096000,19.148095947265624,0.001221729558892548,0.010384701192378998,-0.0054977829568088055
1707663740452943000,19.164943115234376,-0.006719512399286032,0.01588248461484909,-0.01588248461484909
1707663740469790200,19.181790283203124,0.0030543238390237093,0.009162971749901772,0.002443459117785096
1707663740486637600,19.198637451171876,-0.002443459117785096,0.010384701192378998,-0.01649334840476513
1707663740503484700,19.215484619140625,0.006108647678047419,0.008552107028663158,0.009773836471140385
1707663740520332000,19.23233203125,0.007330377586185932,0.008552107028663158,0.010384701192378998
1707663740537179100,19.24917919921875,0.007330377586185932,0.008552107028663158,-0.017715077847242355
1707663740554026200,19.266026123046874,0.007330377586185932,0.009162971749901772,0.020769402384757996
1707663740570873600,19.28287353515625,0.021991131827235222,0.0030543238390237093,0.017715077847242355
1707663740587720700,19.299720703125,0.0256563201546669,0.004886918235570192,-0.004886918235570192
1707663740604568000,19.316568115234375,0.023212861269712448,0.006108647678047419,0.018325943499803543
1707663740621415200,19.333415283203124,0.023823726922273636,0.0054977829568088055,-0.001832594396546483
1707663740638262300,19.35026220703125,0.02260199747979641,0.007941242307424545,0.004276053514331579
1707663740655109600,19.367109619140624,0.024434590712189674,0.006719512399286032,0.020769402384757996
1707663740671956700,19.383956787109376,0.027488915249705315,0.007330377586185932,0.014049889519810677
1707663740688804000,19.40080419921875,0.027488915249705315,0.009773836471140385,-0.023212861269712448
1707663740705651200,19.417651123046873,0.03543015569448471,0.006108647678047419,0.025045456364750862
1707663740722498300,19.434498291015625,0.026878049597144127,0.009773836471140385,0.01954767294228077
1707663740739345700,19.451345703125,0.031154103577136993,0.007330377586185932,0.001832594396546483
1707663740756192800,19.46819287109375,0.030543239787220955,0.007330377586185932,-0.010995565913617611
1707663740773040000,19.4850400390625,0.023212861269712448,0.0054977829568088055,-0.017104214057326317
1707663740789887200,19.50188720703125,0.01893680728971958,0.010384701192378998,-0.004886918235570192
1707663740806734300,19.518734375,0.027488915249705315,0.006108647678047419,-0.02871064469218254
1707663740823581700,19.535581787109376,0.018325943499803543,0.006719512399286032,-0.018325943499803543
1707663740840428800,19.5524287109375,0.013439024798572063,0.012217295356094837,-0.028099779039621353
1707663740857276000,19.56927587890625,0.02260199747979641,0.007941242307424545,-0.05192350596189499
1707663740874123300,19.586123291015625,0.015271619893610477,0.009773836471140385,-0.043982263654470444
1707663740890970400,19.602970458984377,0.017104214057326317,0.009773836471140385,-0.004886918235570192
1707663740907817700,19.619817626953125,0.01893680728971958,0.006719512399286032,-0.010995565913617611
1707663740924664800,19.636664794921874,0.014049889519810677,0.009162971749901772,-0.04276053607463837
1707663740941512000,19.653511962890626,0.0054977829568088055,0.012217295356094837,-0.03543015569448471
1707663740958359300,19.670359375,0.01282816007733345,0.008552107028663158,0.012217295356094837
1707663740975206400,19.687206298828126,0.009162971749901772,0.010384701192378998,-0.010384701192378998
1707663740992053800,19.7040537109375,0.009162971749901772,0.006719512399286032,-0.01588248461484909
1707663741008900900,19.72090087890625,0.010384701192378998,0.006719512399286032,0.007330377586185932
1707663741025748200,19.737748291015624,0.000610864779446274,0.008552107028663158,0.0030543238390237093
1707663741042595300,19.75459521484375,-0.000610864779446274,0.009162971749901772,-0.02626718580722809
1707663741059442400,19.7714423828125,0.010384701192378998,0.0054977829568088055,0.010384701192378998
1707663741076289800,19.788289794921877,0.014660755172371864,0.003665188793092966,0.03848448023200035
1707663741093137000,19.805136962890625,0.007941242307424545,0.006108647678047419,-0.020769402384757996
1707663741109984000,19.82198388671875,0.0054977829568088055,0.008552107028663158,-0.007330377586185932
1707663741126831400,19.838831298828126,0.001832594396546483,0.010384701192378998,0.009773836471140385
1707663741143678500,19.855678466796874,0.006719512399286032,0.009162971749901772,0.013439024798572063
1707663741160525800,19.87252587890625,0.018325943499803543,0.009162971749901772,-0.018325943499803543
1707663741177373000,19.889373046875,0.01954767294228077,0.007330377586185932,-0.009162971749901772
1707663741194220000,19.906219970703123,0.013439024798572063,0.011606430634856224,0.000610864779446274
1707663741211067400,19.9230673828125,0.014660755172371864,0.008552107028663158,-0.029932374134659767
1707663741227914500,19.93991455078125,0.01649334840476513,0.009773836471140385,0.008552107028663158
1707663741244761900,19.956761962890624,0.014049889519810677,0.010384701192378998,-0.011606430634856224
1707663741261609000,19.97360888671875,0.01282816007733345,0.012217295356094837,-0.026878049597144127
1707663741278456000,19.9904560546875,0.009162971749901772,0.012217295356094837,-0.01588248461484909
1707663741295303400,20.007303466796873,0.007330377586185932,0.011606430634856224,-0.001221729558892548
