time,seconds_elapsed,z,y,x
1707663721345109200,0.057109130859375,7.511070251464844,6.9344000816345215,1.423729419708252
1707663721361955600,0.07395556640625,7.618747234344482,5.639883041381836,0.23688943684101105
1707663721378801700,0.0908017578125,8.295916557312012,3.129812002182007,-0.009571290574967861
1707663721395648000,0.10764794921875,8.054241180419922,3.428914785385132,-0.33020952343940735
1707663721412494300,0.124494384765625,9.602396965026855,3.775874137878418,0.15314064919948578
1707663721429340400,0.14134033203125,10.834700584411621,3.404986619949341,0.30149564146995544
1707663721446186800,0.158186767578125,11.447263717651367,3.304488182067871,-0.44027936458587646
1707663721463033000,0.175033203125,11.140982627868652,3.06999135017395,-1.552941918373108
1707663721479879400,0.19187939453125,11.073983192443848,3.1920254230499268,-1.5672988891601562
1707663721496725500,0.2087255859375,10.951949119567871,3.2829527854919434,-1.0528420209884644
1707663721513571800,0.22557177734375,10.408778190612793,3.1250264644622803,-1.9381862878799438
1707663721530418200,0.242418212890625,8.260024070739746,3.926621913909912,-3.4265220165252686
1707663721547264300,0.25926416015625,8.449056625366211,4.816751956939697,-1.4835500717163086
1707663721564110600,0.276110595703125,8.410771369934082,4.902893543243408,-0.5958128571510315
1707663721580957000,0.29295703125,8.233702659606934,5.472385406494141,-0.7106683254241943
1707663721597803300,0.30980322265625,7.755138397216797,5.606383323669434,-0.3038884699344635
1707663721614649300,0.3266494140625,8.212167739868164,6.0370917320251465,-1.0839486122131348
1707663721631495700,0.34349560546875,8.394021987915039,6.7310099601745605,-1.7994025945663452
1707663721648342000,0.360342041015625,7.671389579772949,7.728816986083984,-2.400001049041748
1707663721665188400,0.377188232421875,6.190232276916504,8.219346046447754,-1.5122638940811157
1707663721682034700,0.39403466796875,6.001199245452881,8.13081169128418,-1.7204394340515137
1707663721698880800,0.410880859375,7.752745151519775,8.793622970581055,-1.6390835046768188
1707663721715727000,0.42772705078125,8.61894702911377,8.767302513122559,-0.6652047038078308
1707663721732573400,0.444573486328125,7.525427341461182,7.913064479827881,0.30628129839897156
1707663721749419800,0.461419677734375,8.11406135559082,6.522834300994873,1.0504491329193115
1707663721766265900,0.478265869140625,7.903493404388428,6.38883638381958,-1.4644074440002441
1707663721783112200,0.4951123046875,6.31944465637207,7.080362319946289,-3.4743785858154297
1707663721799958500,0.51195849609375,7.326822757720947,8.671588897705078,-5.266602516174316
1707663721816804900,0.528804931640625,6.041877269744873,7.427321434020996,-4.567898273468018
1707663721833651200,0.545651123046875,4.1491546630859375,7.066005229949951,-3.500699520111084
1707663721850497500,0.56249755859375,3.34995174407959,7.1234331130981445,-2.2683959007263184
1707663721867344000,0.57934375,2.445464849472046,7.322037220001221,-0.016749758273363113
1707663721884190200,0.596190185546875,5.151747226715088,7.195217609405518,-1.6893328428268433
1707663721901036300,0.613036376953125,5.565705299377441,6.240481376647949,-2.447857618331909
1707663721917882600,0.629882568359375,4.132404804229736,5.955735683441162,-3.4169507026672363
1707663721934729000,0.64672900390625,4.4482574462890625,6.577869415283203,-3.8117663860321045
1707663721951575300,0.6635751953125,4.015156269073486,6.532405853271484,-1.852044701576233
1707663721968421600,0.680421630859375,4.4243292808532715,6.429514408111572,-1.4117653369903564
1707663721985268000,0.69726806640625,4.185046672821045,7.252645492553711,-2.179861545562744
1707663722002114300,0.7141142578125,2.9072794914245605,8.293522834777832,-2.1822543144226074
1707663722018960400,0.73096044921875,0.7704889178276062,8.26241683959961,-2.761317253112793
1707663722035807000,0.747806884765625,-0.5551348328590393,7.860422611236572,-2.1056840419769287
1707663722052653000,0.764653076171875,1.5553346872329712,6.690331935882568,-1.2873386144638062
1707663722069499400,0.78149951171875,2.4119651317596436,6.343372821807861,-0.7800601720809937
1707663722086345700,0.798345703125,1.8592232465744019,6.975078105926514,-1.5672988891601562
1707663722103192000,0.815192138671875,1.8161523342132568,7.891529083251953,-1.1509476900100708
1707663722120038400,0.832038330078125,3.0939197540283203,8.930013656616211,0.5670989751815796
1707663722136884700,0.848884765625,1.789831280708313,8.86062240600586,0.397208571434021
1707663722153731000,0.86573095703125,2.1846470832824707,6.850651264190674,-2.007578134536743
1707663722170577400,0.882577392578125,3.562912940979004,6.649653911590576,-1.2538390159606934
1707663722187423700,0.899423828125,3.476771354675293,6.317051887512207,0.34217363595962524
1707663722204270000,0.91627001953125,3.9314076900482178,8.781659126281738,-1.7826528549194336
1707663722221116400,0.933116455078125,2.344966173171997,9.68375301361084,-3.0652058124542236
1707663722237962800,0.949962646484375,2.3234307765960693,8.707481384277344,-4.328616142272949
1707663722254809000,0.96680908203125,4.302295207977295,7.664210796356201,-3.4480574131011963
1707663722271655400,0.983655517578125,4.340580463409424,9.07119083404541,-2.3258235454559326
1707663722288501800,1.000501708984375,3.9194436073303223,9.923035621643066,-1.9381862878799438
1707663722305348000,1.01734814453125,4.096512317657471,9.535398483276367,-2.833101987838745
1707663722322194400,1.0341943359375,4.744967460632324,9.262616157531738,-2.981456995010376
1707663722339040800,1.051040771484375,5.350351333618164,10.669595718383789,-1.8161523342132568
1707663722355887000,1.06788720703125,4.467400074005127,12.088540077209473,-0.8997012972831726
1707663722372733400,1.0847333984375,3.8021950721740723,11.686545372009277,-1.332802176475525
1707663722389579800,1.101579833984375,4.086941242218018,11.152946472167969,-1.887937068939209
1707663722406426000,1.118426025390625,3.596412420272827,11.059626579284668,-0.8805587291717529
1707663722423272400,1.1352724609375,4.0079779624938965,10.932806968688965,-0.9667003750801086
1707663722440118800,1.152118896484375,3.8763725757598877,10.351350784301758,-1.550549030303955
1707663722456965000,1.168965087890625,4.156332969665527,10.03549861907959,-1.552941918373108
1707663722473811700,1.185811767578125,4.015156269073486,9.765109062194824,-1.5672988891601562
1707663722490658000,1.202657958984375,3.658625841140747,9.324830055236816,-1.184447169303894
1707663722507504400,1.21950439453125,3.4983067512512207,8.930013656616211,-0.6125625967979431
1707663722524350700,1.236350830078125,3.8572301864624023,8.044670104980469,-0.5431707501411438
1707663722541197000,1.253197021484375,3.735196113586426,8.271987915039062,-0.8063812255859375
1707663722558043400,1.27004345703125,3.208775281906128,9.061619758605957,-0.2799602448940277
1707663722574889700,1.2868896484375,3.955335855484009,9.597611427307129,0.040677983313798904
1707663722591736000,1.303736083984375,3.6083765029907227,10.894521713256836,0.21774685382843018
1707663722608582700,1.320582763671875,3.9457645416259766,9.827322959899902,-0.42352959513664246
1707663722625429000,1.337428955078125,3.840480327606201,8.956335067749023,-0.6149554252624512
1707663722642275300,1.354275390625,3.239881753921509,9.621540069580078,0.4259224236011505
1707663722659121700,1.37112158203125,4.311866283416748,7.956135272979736,-0.641276478767395
1707663722675968000,1.387968017578125,3.22552490234375,8.937192916870117,-0.32303106784820557
1707663722692814300,1.404814453125,3.3308091163635254,9.422935485839844,0.10049854964017868
1707663722709660700,1.42166064453125,3.34995174407959,9.973284721374512,-0.2584248483181
1707663722726507300,1.43850732421875,3.2159535884857178,10.96630573272705,-0.349352091550827
1707663722743353600,1.455353515625,3.620340585708618,8.779266357421875,-0.08614161610603333
1707663722760200000,1.472199951171875,3.177668571472168,9.114261627197266,0.672383189201355
1707663722777046300,1.48904638671875,3.8333017826080322,8.429914474487305,0.08374879509210587
1707663722793892600,1.505892578125,2.548356056213379,9.497113227844238,-1.1700903177261353
1707663722810739200,1.5227392578125,3.2997024059295654,8.657232284545898,0.04307080805301666
1707663722827585500,1.53958544921875,2.715853691101074,9.255437850952148,0.3900300860404968
1707663722844432000,1.556431884765625,3.314059257507324,8.183453559875488,0.01196411345154047
1707663722861278200,1.5732783203125,3.304488182067871,8.094919204711914,-0.8111668825149536
1707663722878124500,1.59012451171875,3.1680972576141357,8.169096946716309,-0.2273181527853012
1707663722894971100,1.60697119140625,2.445464849472046,8.906085968017578,0.5240281820297241
1707663722911817500,1.6238173828125,3.0340991020202637,8.784051895141602,-1.222732424736023
1707663722928663800,1.640663818359375,2.218146562576294,9.631111145019531,-1.852044701576233
1707663722945510400,1.657510498046875,2.6249263286590576,12.882957458496094,-0.1459621787071228
1707663722962356700,1.674356689453125,3.7184464931488037,8.81515884399414,-0.10049854964017868
1707663722979203000,1.691203125,3.421736478805542,9.32722282409668,0.6604190468788147
1707663722996049400,1.70804931640625,3.0484559535980225,9.274580955505371,0.2632105052471161
1707663723012895700,1.724895751953125,2.857030153274536,9.116654396057129,0.2560320198535919
1707663723029742300,1.741742431640625,3.263810157775879,9.463613510131836,0.5312066078186035
1707663723046588700,1.758588623046875,3.7806596755981445,9.044869422912598,0.07896314561367035
1707663723063435000,1.77543505859375,3.4887354373931885,8.25523853302002,-1.069591760635376
1707663723080281600,1.792281494140625,4.168296813964844,8.078168869018555,-0.8470591902732849
1707663723097128000,1.8091279296875,3.046063184738159,8.841479301452637,-0.44745782017707825
1707663723113974300,1.825974365234375,3.184846878051758,9.279366493225098,0.7896314859390259
1707663723130820900,1.84282080078125,3.1202406883239746,8.858229637145996,0.7178468108177185
1707663723147667200,1.859667236328125,3.493520975112915,8.688339233398438,0.7417750358581543
1707663723164513500,1.876513427734375,3.019742250442505,9.22433090209961,0.2871387302875519
1707663723181360000,1.893360107421875,3.321237802505493,9.078369140625,0.4019941985607147
1707663723198206500,1.91020654296875,3.1561331748962402,8.937192916870117,0.39481574296951294
1707663723215052800,1.927052734375,3.4959139823913574,8.50169849395752,0.24646073579788208
1707663723231899400,1.9438994140625,3.658625841140747,9.090332984924316,0.32542386651039124
1707663723248745700,1.960745849609375,3.5461630821228027,9.743574142456055,0.31106695532798767
1707663723265592000,1.977592041015625,3.5222349166870117,9.159725189208984,0.4570291340351105
1707663723282438700,1.994438720703125,3.924229145050049,9.432506561279297,1.0863415002822876
1707663723299285000,2.011284912109375,3.830909013748169,9.28893756866455,0.41874396800994873
1707663723316131600,2.028131591796875,3.601198196411133,9.159725189208984,0.2991028428077698
1707663723332978000,2.04497802734375,2.933600664138794,9.073583602905273,-0.035892341285943985
1707663723349824300,2.06182421875,3.651447296142578,9.006584167480469,0.39960137009620667
1707663723366670800,2.0786708984375,3.1274192333221436,8.891729354858398,-0.10289137065410614
1707663723383517200,2.09551708984375,3.5676984786987305,8.834300994873047,0.3517449200153351
1707663723400363800,2.11236376953125,3.610769271850586,8.738588333129883,0.13639089465141296
1707663723417210000,2.129210205078125,4.1491546630859375,8.760123252868652,0.26081767678260803
1707663723434056700,2.146056640625,4.575077056884766,8.894122123718262,0.09092725813388824
1707663723450903000,2.162903076171875,4.364508628845215,8.896514892578125,-0.11964113265275955
1707663723467749600,2.17974951171875,3.7399818897247314,8.7505521774292,-0.30149564146995544
1707663723484596000,2.196595947265625,3.972085475921631,8.786444664001465,-0.28235307335853577
1707663723501442300,2.2134423828125,4.00319242477417,8.918049812316895,-0.3613162338733673
1707663723518289000,2.230288818359375,3.625126361846924,8.910871505737305,-0.3038884699344635
1707663723535135200,2.24713525390625,3.9792640209198,8.865407943725586,-0.09571290761232376
1707663723551981800,2.26398193359375,3.783052682876587,8.793622970581055,0.14835500717163086
1707663723568828200,2.280828125,3.6681971549987793,8.7505521774292,-0.02871387079358101
1707663723585674800,2.2976748046875,4.816751956939697,8.784051895141602,-0.04546362906694412
1707663723602521000,2.31452099609375,5.328815937042236,8.72901725769043,-0.12921242415905
1707663723619367700,2.33136767578125,4.680361270904541,8.621339797973633,-0.2560320198535919
1707663723636214300,2.34821435546875,4.393222332000732,8.700303077697754,-0.02632104977965355
1707663723653060600,2.365060546875,4.278367042541504,8.731410026550293,0.05742774158716202
1707663723669907200,2.3819072265625,4.730610370635986,8.568697929382324,-0.016749758273363113
1707663723686753500,2.39875341796875,4.185046672821045,8.86780071258545,-0.16271193325519562
1707663723703600000,2.41560009765625,3.7782669067382812,8.731410026550293,0.064606212079525
1707663723720446500,2.432446533203125,2.3617160320281982,8.590232849121094,-0.08853443711996078
1707663723737293000,2.44929296875,4.199403762817383,8.772088050842285,0.06939185410737991
1707663723754139400,2.466139404296875,5.905486106872559,8.659625053405762,-0.02871387079358101
1707663723770986000,2.482986083984375,4.730610370635986,8.650053977966309,-0.08135596662759781
1707663723787832600,2.49983251953125,3.019742250442505,8.685946464538574,-0.02392822690308094
1707663723804679000,2.516678955078125,4.319045066833496,8.700303077697754,-0.04307080805301666
1707663723821525500,2.533525390625,4.835894584655762,8.688339233398438,-0.02871387079358101
1707663723838372000,2.5503720703125,3.8117663860321045,8.70508861541748,0.007178467698395252
1707663723855218400,2.567218505859375,3.9122650623321533,8.707481384277344,0.004785645287483931
1707663723872065000,2.58406494140625,4.553541660308838,8.70508861541748,-0.038285162299871445
1707663723888911400,2.600911376953125,4.206582069396973,8.709874153137207,-0.031106693670153618
1707663723905758000,2.617758056640625,3.9218363761901855,8.71226692199707,-0.031106693670153618
1707663723922604500,2.6346044921875,4.335794448852539,8.717052459716797,-0.040677983313798904
1707663723939451100,2.651451171875,4.311866283416748,8.695517539978027,-0.04307080805301666
1707663723956297500,2.66829736328125,4.060619831085205,8.707481384277344,-0.02871387079358101
1707663723973144000,2.68514404296875,4.218546390533447,8.702695846557617,-0.04785645380616188
1707663723989990700,2.70199072265625,4.304687976837158,8.6907320022583,-0.038285162299871445
1707663724006837000,2.7188369140625,4.158725738525391,8.678768157958984,-0.04307080805301666
1707663724023683600,2.73568359375,4.158725738525391,8.676374435424805,-0.04546362906694412
1707663724040530200,2.7525302734375,4.242474555969238,8.669196128845215,-0.031106693670153618
1707663724057376800,2.769376708984375,4.177868366241455,8.685946464538574,-0.035892341285943985
1707663724074223000,2.78622314453125,4.151547431945801,8.688339233398438,-0.02871387079358101
1707663724091069700,2.803069580078125,4.206582069396973,8.685946464538574,-0.04307080805301666
1707663724107916300,2.819916259765625,4.18983268737793,8.69791030883789,-0.031106693670153618
1707663724124763000,2.836762939453125,4.151547431945801,8.700303077697754,-0.02392822690308094
1707663724141609200,2.853609130859375,4.194618225097656,8.693124771118164,-0.040677983313798904
1707663724158455800,2.870455810546875,4.199403762817383,8.719446182250977,-0.035892341285943985
1707663724175302400,2.887302490234375,4.175475597381592,8.707481384277344,-0.03349951654672623
1707663724192149000,2.90414892578125,4.180261135101318,8.714659690856934,-0.03349951654672623
1707663724208995300,2.920995361328125,4.1970109939575195,8.702695846557617,-0.040677983313798904
1707663724225842000,2.937842041015625,4.1970109939575195,8.6907320022583,-0.038285162299871445
1707663724242688500,2.9546884765625,4.180261135101318,8.6907320022583,-0.04546362906694412
1707663724259535000,2.97153515625,4.192225456237793,8.69791030883789,-0.02392822690308094
1707663724276381700,2.988381591796875,4.1970109939575195,8.688339233398438,-0.009571290574967861
1707663724293228300,3.005228271484375,4.187439441680908,8.683553695678711,-0.02392822690308094
1707663724310075000,3.022074951171875,4.201796531677246,8.681160926818848,-0.02392822690308094
1707663724326921200,3.038921142578125,4.1970109939575195,8.688339233398438,-0.05024927482008934
1707663724343767800,3.055767822265625,4.192225456237793,8.688339233398438,-0.031106693670153618
1707663724360614400,3.072614501953125,4.199403762817383,8.6907320022583,-0.02871387079358101
1707663724377461000,3.0894609375,4.201796531677246,8.693124771118164,-0.02632104977965355
1707663724394307600,3.1063076171875,4.18983268737793,8.695517539978027,-0.035892341285943985
1707663724411154200,3.123154296875,4.187439441680908,8.702695846557617,-0.02392822690308094
1707663724428000800,3.140000732421875,4.201796531677246,8.700303077697754,-0.03349951654672623
1707663724444847400,3.156847412109375,4.177868366241455,8.700303077697754,-0.04307080805301666
1707663724461693700,3.173693603515625,4.204189300537109,8.700303077697754,-0.02871387079358101
1707663724478540300,3.190540283203125,4.18983268737793,8.700303077697754,-0.02632104977965355
1707663724495387000,3.207386962890625,4.170690059661865,8.685946464538574,-0.040677983313798904
1707663724512233500,3.2242333984375,4.180261135101318,8.681160926818848,-0.038285162299871445
1707663724529080000,3.241080078125,4.201796531677246,8.700303077697754,-0.035892341285943985
1707663724545926700,3.2579267578125,4.201796531677246,8.681160926818848,-0.035892341285943985
1707663724562773200,3.274773193359375,4.18983268737793,8.683553695678711,-0.040677983313798904
1707663724579619800,3.291619873046875,4.201796531677246,8.688339233398438,-0.031106693670153618
1707663724596466400,3.308466552734375,4.194618225097656,8.6907320022583,-0.040677983313798904
1707663724613313000,3.32531298828125,4.187439441680908,8.6907320022583,-0.04546362906694412
1707663724630159600,3.34215966796875,4.199403762817383,8.688339233398438,-0.035892341285943985
1707663724647006200,3.359006103515625,4.199403762817383,8.6907320022583,-0.035892341285943985
1707663724663852800,3.375852783203125,4.206582069396973,8.688339233398438,-0.031106693670153618
1707663724680699400,3.392699462890625,4.201796531677246,8.695517539978027,-0.04546362906694412
1707663724697546000,3.4095458984375,4.204189300537109,8.69791030883789,-0.02392822690308094
1707663724714392600,3.426392578125,4.206582069396973,8.688339233398438,-0.02153540402650833
1707663724731239200,3.4432392578125,4.194618225097656,8.702695846557617,-0.02153540402650833
1707663724748085800,3.460085693359375,4.216153621673584,8.6907320022583,-0.031106693670153618
1707663724764932400,3.476932373046875,4.180261135101318,8.695517539978027,-0.038285162299871445
1707663724781779000,3.493779052734375,4.201796531677246,8.695517539978027,-0.02871387079358101
1707663724798625500,3.51062548828125,4.1970109939575195,8.685946464538574,-0.02871387079358101
1707663724815472000,3.52747216796875,4.192225456237793,8.700303077697754,-0.031106693670153618
1707663724832318700,3.544318603515625,4.18983268737793,8.685946464538574,-0.031106693670153618
1707663724849165300,3.561165283203125,4.187439441680908,8.673981666564941,-0.014356935396790504
1707663724866012000,3.578011962890625,4.175475597381592,8.678768157958984,-0.02871387079358101
1707663724882858800,3.594858642578125,4.180261135101318,8.693124771118164,-0.02871387079358101
1707663724899705300,3.611705322265625,4.204189300537109,8.707481384277344,-0.02392822690308094
1707663724916552000,3.628552001953125,4.204189300537109,8.6907320022583,-0.03349951654672623
1707663724933398500,3.6453984375,4.206582069396973,8.700303077697754,-0.0526420995593071
1707663724950245000,3.6622451171875,4.194618225097656,8.700303077697754,-0.040677983313798904
1707663724967091700,3.679091796875,4.199403762817383,8.693124771118164,-0.035892341285943985
1707663724983938300,3.695938232421875,4.1970109939575195,8.70508861541748,-0.04546362906694412
1707663725000785200,3.71278515625,4.194618225097656,8.685946464538574,-0.038285162299871445
1707663725017631700,3.7296318359375,4.204189300537109,8.685946464538574,-0.04307080805301666
1707663725034478300,3.746478271484375,4.204189300537109,8.6907320022583,-0.03349951654672623
1707663725051325000,3.763324951171875,4.192225456237793,8.688339233398438,-0.035892341285943985
1707663725068171500,3.780171630859375,4.199403762817383,8.69791030883789,-0.038285162299871445
1707663725085018000,3.79701806640625,4.204189300537109,8.69791030883789,-0.02632104977965355
1707663725101864700,3.81386474609375,4.208974838256836,8.681160926818848,-0.02871387079358101
1707663725118711600,3.830711669921875,4.216153621673584,8.683553695678711,-0.03349951654672623
1707663725135558100,3.84755810546875,4.187439441680908,8.695517539978027,-0.035892341285943985
1707663725152404700,3.86440478515625,4.187439441680908,8.6907320022583,-0.040677983313798904
1707663725169251300,3.881251220703125,4.204189300537109,8.688339233398438,-0.038285162299871445
1707663725186098200,3.89809814453125,4.194618225097656,8.693124771118164,-0.038285162299871445
1707663725202944800,3.91494482421875,4.194618225097656,8.69791030883789,-0.02153540402650833
1707663725219791400,3.931791259765625,4.182653903961182,8.6907320022583,-0.04546362906694412
1707663725236638000,3.948637939453125,4.194618225097656,8.695517539978027,-0.02632104977965355
1707663725253484500,3.965484619140625,4.204189300537109,8.695517539978027,-0.031106693670153618
1707663725270331400,3.982331298828125,4.204189300537109,8.693124771118164,-0.02632104977965355
1707663725287178000,3.999177978515625,4.187439441680908,8.688339233398438,-0.02632104977965355
1707663725304024600,4.016024658203125,4.201796531677246,8.693124771118164,-0.02153540402650833
1707663725320871400,4.032871337890625,4.182653903961182,8.693124771118164,-0.035892341285943985
1707663725337718000,4.049718017578125,4.201796531677246,8.688339233398438,-0.040677983313798904
1707663725354564600,4.066564697265625,4.208974838256836,8.6907320022583,-0.031106693670153618
1707663725371411500,4.083411376953125,4.211368083953857,8.702695846557617,-0.04307080805301666
1707663725388258000,4.100258056640625,4.199403762817383,8.693124771118164,-0.035892341285943985
1707663725405104600,4.117104736328125,4.208974838256836,8.702695846557617,-0.03349951654672623
1707663725421951200,4.133951171875,4.206582069396973,8.700303077697754,-0.02632104977965355
1707663725438798000,4.150798095703125,4.1970109939575195,8.693124771118164,-0.035892341285943985
1707663725455644700,4.167644775390625,4.1970109939575195,8.6907320022583,-0.04307080805301666
1707663725472491300,4.1844912109375,4.201796531677246,8.688339233398438,-0.040677983313798904
1707663725489338000,4.201338134765625,4.192225456237793,8.695517539978027,-0.02632104977965355
1707663725506184700,4.218184814453125,4.208974838256836,8.688339233398438,-0.040677983313798904
1707663725523031600,4.235031494140625,4.218546390533447,8.693124771118164,-0.03349951654672623
1707663725539878100,4.251878173828125,4.1970109939575195,8.683553695678711,-0.031106693670153618
1707663725556724700,4.268724853515625,4.192225456237793,8.685946464538574,-0.02871387079358101
1707663725573571600,4.285571533203125,4.1970109939575195,8.695517539978027,-0.04307080805301666
1707663725590418200,4.302418212890625,4.213760852813721,8.678768157958984,-0.03349951654672623
1707663725607264800,4.3192646484375,4.211368083953857,8.681160926818848,-0.035892341285943985
1707663725624111600,4.336111572265625,4.204189300537109,8.681160926818848,-0.02392822690308094
1707663725640958200,4.352958251953125,4.199403762817383,8.69791030883789,-0.04307080805301666
1707663725657805000,4.36980517578125,4.204189300537109,8.683553695678711,-0.040677983313798904
1707663725674651600,4.386651611328125,4.206582069396973,8.69791030883789,-0.031106693670153618
1707663725691498500,4.40349853515625,4.199403762817383,8.6907320022583,-0.02871387079358101
1707663725708345000,4.420344970703125,4.211368083953857,8.688339233398438,-0.031106693670153618
1707663725725191700,4.437191650390625,4.218546390533447,8.69791030883789,-0.02392822690308094
1707663725742038500,4.45403857421875,4.218546390533447,8.695517539978027,-0.035892341285943985
1707663725758885000,4.470885009765625,4.204189300537109,8.693124771118164,-0.02392822690308094
1707663725775732000,4.48773193359375,4.201796531677246,8.702695846557617,-0.02632104977965355
1707663725792578600,4.50457861328125,4.211368083953857,8.685946464538574,-0.035892341285943985
1707663725809425400,4.52142529296875,4.204189300537109,8.688339233398438,-0.02871387079358101
1707663725826272000,4.53827197265625,4.208974838256836,8.678768157958984,-0.02632104977965355
1707663725843118800,4.555118896484375,4.199403762817383,8.693124771118164,-0.02392822690308094
1707663725859965400,4.57196533203125,4.1970109939575195,8.688339233398438,-0.03349951654672623
1707663725876812300,4.588812255859375,4.1970109939575195,8.685946464538574,-0.03349951654672623
1707663725893659000,4.605658935546875,4.175475597381592,8.662017822265625,-0.059820566326379776
1707663725910505700,4.622505615234375,4.192225456237793,8.673981666564941,-0.062213387340307236
1707663725927352300,4.639352294921875,4.201796531677246,8.683553695678711,-0.04307080805301666
1707663725944199200,4.65619921875,4.182653903961182,8.702695846557617,-0.02871387079358101
1707663725961045800,4.673045654296875,4.199403762817383,8.702695846557617,-0.019142581149935722
1707663725977892600,4.689892578125,4.208974838256836,8.681160926818848,-0.035892341285943985
1707663725994739500,4.706739501953125,4.201796531677246,8.688339233398438,-0.02632104977965355
1707663726011586000,4.7235859375,4.211368083953857,8.69791030883789,-0.03349951654672623
1707663726028433000,4.740432861328125,4.208974838256836,8.707481384277344,-0.03349951654672623
1707663726045279500,4.757279541015625,4.211368083953857,8.69791030883789,-0.038285162299871445
1707663726062126300,4.774126220703125,4.208974838256836,8.69791030883789,-0.02153540402650833
1707663726078973000,4.790972900390625,4.206582069396973,8.6907320022583,-0.031106693670153618
1707663726095819800,4.80781982421875,4.213760852813721,8.69791030883789,-0.035892341285943985
1707663726112666600,4.82466650390625,4.225724697113037,8.6907320022583,-0.02153540402650833
1707663726129513200,4.84151318359375,4.194618225097656,8.683553695678711,-0.031106693670153618
1707663726146360000,4.858360107421875,4.201796531677246,8.664410591125488,-0.04307080805301666
1707663726163207000,4.87520703125,4.213760852813721,8.676374435424805,-0.031106693670153618
1707663726180053500,4.892053466796875,4.201796531677246,8.685946464538574,-0.02392822690308094
1707663726196900400,4.908900390625,4.201796531677246,8.702695846557617,-0.031106693670153618
1707663726213747000,4.925746826171875,4.199403762817383,8.6907320022583,-0.03349951654672623
1707663726230593800,4.94259375,4.201796531677246,8.700303077697754,-0.02392822690308094
1707663726247440600,4.959440673828125,4.199403762817383,8.695517539978027,-0.02392822690308094
1707663726264287200,4.976287353515625,4.206582069396973,8.693124771118164,-0.035892341285943985
1707663726281134000,4.993134033203125,4.199403762817383,8.695517539978027,-0.038285162299871445
1707663726297981000,5.00998095703125,4.213760852813721,8.69791030883789,-0.02632104977965355
1707663726314827500,5.02682763671875,4.201796531677246,8.700303077697754,-0.040677983313798904
1707663726331674400,5.04367431640625,4.204189300537109,8.69791030883789,-0.04546362906694412
1707663726348521200,5.060521240234375,4.208974838256836,8.69791030883789,-0.040677983313798904
1707663726365367800,5.077367919921875,4.194618225097656,8.69791030883789,-0.035892341285943985
1707663726382214700,5.094214599609375,4.213760852813721,8.6907320022583,-0.02632104977965355
1707663726399061500,5.1110615234375,4.18983268737793,8.685946464538574,-0.02871387079358101
1707663726415908400,5.127908447265625,4.208974838256836,8.685946464538574,-0.038285162299871445
1707663726432755000,5.1447548828125,4.211368083953857,8.693124771118164,-0.0526420995593071
1707663726449601800,5.161601806640625,4.211368083953857,8.671588897705078,-0.038285162299871445
1707663726466448600,5.17844873046875,4.218546390533447,8.69791030883789,-0.03349951654672623
1707663726483295200,5.195295166015625,4.208974838256836,8.683553695678711,-0.019142581149935722
1707663726500142000,5.21214208984375,4.201796531677246,8.685946464538574,-0.02632104977965355
1707663726516989000,5.228989013671875,4.208974838256836,8.693124771118164,-0.03349951654672623
1707663726533835800,5.245835693359375,4.208974838256836,8.693124771118164,-0.040677983313798904
1707663726550682400,5.262682373046875,4.185046672821045,8.683553695678711,-0.02632104977965355
1707663726567529200,5.279529296875,4.201796531677246,8.683553695678711,-0.038285162299871445
1707663726584376000,5.2963759765625,4.201796531677246,8.695517539978027,-0.02392822690308094
1707663726601223000,5.313222900390625,4.199403762817383,8.70508861541748,-0.038285162299871445
1707663726618069800,5.33006982421875,4.1970109939575195,8.693124771118164,-0.04307080805301666
1707663726634916400,5.346916259765625,4.216153621673584,8.707481384277344,-0.03349951654672623
1707663726651763200,5.36376318359375,4.211368083953857,8.71226692199707,-0.03349951654672623
1707663726668610000,5.380610107421875,4.211368083953857,8.700303077697754,-0.019142581149935722
1707663726685457000,5.397456787109375,4.218546390533447,8.709874153137207,-0.009571290574967861
1707663726702303700,5.4143037109375,4.218546390533447,8.700303077697754,-0.014356935396790504
1707663726719150300,5.431150390625,4.211368083953857,8.693124771118164,-0.035892341285943985
1707663726735997200,5.4479970703125,4.192225456237793,8.685946464538574,-0.04546362906694412
1707663726752844000,5.464843994140625,4.204189300537109,8.678768157958984,-0.040677983313798904
1707663726769691000,5.48169091796875,4.223331928253174,8.693124771118164,-0.02392822690308094
1707663726786537700,5.498537841796875,4.223331928253174,8.695517539978027,-0.05742774158716202
1707663726803384600,5.515384521484375,4.206582069396973,8.669196128845215,-0.06939185410737991
1707663726820231200,5.532231201171875,4.216153621673584,8.681160926818848,-0.06699903309345245
1707663726837078000,5.549078125,4.18983268737793,8.681160926818848,-0.062213387340307236
1707663726853924900,5.5659248046875,4.204189300537109,8.688339233398438,-0.019142581149935722
1707663726870771700,5.582771728515625,4.201796531677246,8.709874153137207,-0.035892341285943985
1707663726887618600,5.59961865234375,4.211368083953857,8.683553695678711,-0.05024927482008934
1707663726904465400,5.61646533203125,4.201796531677246,8.693124771118164,-0.040677983313798904
1707663726921312300,5.633312255859375,4.1970109939575195,8.70508861541748,-0.040677983313798904
1707663726938159000,5.6501591796875,4.208974838256836,8.69791030883789,-0.02392822690308094
1707663726955005700,5.667005615234375,4.2281174659729,8.69791030883789,-0.031106693670153618
1707663726971852500,5.6838525390625,4.1970109939575195,8.683553695678711,-0.05024927482008934
1707663726988699400,5.700699462890625,4.223331928253174,8.693124771118164,-0.05024927482008934
1707663727005546200,5.717546142578125,4.204189300537109,8.688339233398438,-0.05024927482008934
1707663727022393000,5.73439306640625,4.216153621673584,8.688339233398438,-0.04546362906694412
1707663727039240000,5.751239990234375,4.2209391593933105,8.695517539978027,-0.031106693670153618
1707663727056086800,5.768086669921875,4.216153621673584,8.673981666564941,-0.02632104977965355
1707663727072933600,5.78493359375,4.237689018249512,8.683553695678711,-0.031106693670153618
1707663727089780500,5.801780517578125,4.223331928253174,8.688339233398438,-0.02153540402650833
1707663727106627300,5.81862744140625,4.206582069396973,8.683553695678711,-0.03349951654672623
1707663727123474200,5.83547412109375,4.218546390533447,8.681160926818848,-0.02153540402650833
1707663727140321000,5.852321044921875,4.211368083953857,8.688339233398438,-0.038285162299871445
1707663727157167600,5.869167724609375,4.206582069396973,8.70508861541748,-0.03349951654672623
1707663727174014500,5.886014404296875,4.206582069396973,8.714659690856934,-0.02632104977965355
1707663727190861300,5.902861328125,4.206582069396973,8.69791030883789,-0.02153540402650833
1707663727207708200,5.919708251953125,4.201796531677246,8.69791030883789,-0.007178467698395252
1707663727224555000,5.936554931640625,4.208974838256836,8.69791030883789,-0.035892341285943985
1707663727241401900,5.95340185546875,4.216153621673584,8.688339233398438,-0.038285162299871445
1707663727258248700,5.970248779296875,4.206582069396973,8.673981666564941,-0.035892341285943985
1707663727275095600,5.987095458984375,4.208974838256836,8.693124771118164,-0.01196411345154047
1707663727291942400,6.0039423828125,4.211368083953857,8.685946464538574,-0.02632104977965355
1707663727308789200,6.020789306640625,4.1970109939575195,8.688339233398438,-0.031106693670153618
1707663727325636000,6.037635986328125,4.208974838256836,8.683553695678711,-0.038285162299871445
1707663727342483000,6.05448291015625,4.211368083953857,8.688339233398438,-0.035892341285943985
1707663727359329800,6.071329833984375,4.201796531677246,8.685946464538574,-0.038285162299871445
1707663727376176600,6.0881767578125,4.201796531677246,8.669196128845215,-0.04785645380616188
1707663727393023500,6.1050234375,4.201796531677246,8.70508861541748,-0.06939185410737991
1707663727409870300,6.121870361328125,4.192225456237793,8.666803359985352,-0.08614161610603333
1707663727426717200,6.13871728515625,4.204189300537109,8.702695846557617,-0.064606212079525
1707663727443564000,6.15556396484375,4.232903480529785,8.70508861541748,-0.035892341285943985
1707663727460411000,6.172410888671875,4.213760852813721,8.700303077697754,-0.035892341285943985
1707663727477257700,6.1892578125,4.204189300537109,8.693124771118164,-0.03349951654672623
1707663727494104800,6.206104736328125,4.206582069396973,8.700303077697754,-0.03349951654672623
1707663727510951400,6.222951416015625,4.208974838256836,8.693124771118164,-0.031106693670153618
1707663727527798500,6.239798583984375,4.204189300537109,8.700303077697754,-0.040677983313798904
1707663727544645400,6.256645263671875,4.211368083953857,8.681160926818848,-0.02392822690308094
1707663727561492200,6.2734921875,4.216153621673584,8.707481384277344,0.019142581149935722
1707663727578339000,6.290339111328125,4.201796531677246,8.69791030883789,0.0023928226437419653
1707663727595186000,6.30718603515625,4.208974838256836,8.683553695678711,0.01196411345154047
1707663727612032800,6.32403271484375,4.204189300537109,8.6907320022583,-0.035892341285943985
1707663727628879600,6.340879638671875,4.216153621673584,8.685946464538574,-0.02632104977965355
1707663727645726500,6.3577265625,4.206582069396973,8.676374435424805,-0.009571290574967861
1707663727662573300,6.3745732421875,4.208974838256836,8.72183895111084,-0.02871387079358101
1707663727679420200,6.391420166015625,4.213760852813721,8.63330364227295,-0.038285162299871445
1707663727696267000,6.40826708984375,4.170690059661865,8.678768157958984,-0.04307080805301666
1707663727713114000,6.425114013671875,4.1970109939575195,8.638090133666992,-0.0526420995593071
1707663727729961000,6.4419609375,4.204189300537109,8.688339233398438,-0.02871387079358101
1707663727746807800,6.458807861328125,4.206582069396973,8.707481384277344,-0.004785645287483931
1707663727763654700,6.475654541015625,4.204189300537109,8.693124771118164,-0.03349951654672623
1707663727780501500,6.49250146484375,4.204189300537109,8.70508861541748,-0.08135596662759781
1707663727797348400,6.509348388671875,4.2281174659729,8.662017822265625,-0.1052841991186142
1707663727814195200,6.5261953125,4.170690059661865,8.726624488830566,-0.07417750358581543
1707663727831042000,6.5430419921875,4.199403762817383,8.673981666564941,-0.059820566326379776
1707663727847889000,6.559888916015625,4.204189300537109,8.676374435424805,-0.02153540402650833
1707663727864736000,6.576736083984375,4.211368083953857,8.693124771118164,-0.019142581149935722
1707663727881582800,6.593582763671875,4.225724697113037,8.693124771118164,-0.014356935396790504
1707663727898429700,6.6104296875,4.247260093688965,8.654839515686035,-0.031106693670153618
1707663727915276500,6.627276611328125,4.216153621673584,8.659625053405762,-0.05742774158716202
1707663727932123400,6.644123291015625,4.213760852813721,8.683553695678711,-0.05503492057323456
1707663727948970200,6.66097021484375,4.242474555969238,8.664410591125488,-0.03349951654672623
1707663727965817300,6.6778173828125,4.247260093688965,8.70508861541748,-0.016749758273363113
1707663727982664200,6.694664306640625,4.2209391593933105,8.671588897705078,-0.040677983313798904
1707663727999511000,6.711510986328125,4.213760852813721,8.685946464538574,-0.040677983313798904
1707663728016358000,6.72835791015625,4.199403762817383,8.695517539978027,-0.038285162299871445
1707663728033204700,6.745204833984375,4.192225456237793,8.700303077697754,-0.0526420995593071
1707663728050051600,6.762051513671875,4.204189300537109,8.681160926818848,-0.02392822690308094
1707663728066898700,6.778898681640625,4.201796531677246,8.70508861541748,-0.0526420995593071
1707663728083745500,6.79574560546875,4.213760852813721,8.671588897705078,-0.04785645380616188
1707663728100592400,6.81259228515625,4.223331928253174,8.683553695678711,-0.02392822690308094
1707663728117439200,6.829439208984375,4.201796531677246,8.693124771118164,-0.019142581149935722
1707663728134286000,6.8462861328125,4.216153621673584,8.707481384277344,-0.04546362906694412
1707663728151133000,6.8631328125,4.216153621673584,8.693124771118164,0.019142581149935722
1707663728167980000,6.87997998046875,4.319045066833496,8.506484031677246,0.04307080805301666
1707663728184827000,6.896826904296875,4.314259052276611,8.590232849121094,0.035892341285943985
1707663728201673700,6.913673828125,4.2831525802612305,8.748159408569336,0.10767702013254166
1707663728218520600,6.9305205078125,4.252045631408691,8.236095428466797,0.02392822690308094
1707663728235367700,6.94736767578125,4.232903480529785,8.642875671386719,-0.17706887423992157
1707663728252214500,6.964214599609375,4.208974838256836,8.719446182250977,0.1052841991186142
1707663728269061400,6.981061279296875,4.223331928253174,8.6907320022583,0.11006984114646912
1707663728285908200,6.997908203125,4.223331928253174,8.685946464538574,-0.007178467698395252
1707663728302755000,7.014755126953125,4.216153621673584,8.681160926818848,-0.14356936514377594
1707663728319602200,7.031602294921875,4.230510234832764,8.70508861541748,-0.0526420995593071
1707663728336449000,7.048448974609375,4.216153621673584,8.69791030883789,-0.04785645380616188
1707663728353296000,7.0652958984375,4.223331928253174,8.745766639709473,-0.04307080805301666
1707663728370142700,7.082142822265625,4.1036906242370605,9.119047164916992,0.08374879509210587
1707663728386989800,7.09898974609375,4.232903480529785,8.396414756774902,-0.17228323221206665
1707663728403836700,7.115836669921875,4.158725738525391,8.717052459716797,0.0023928226437419653
1707663728420683500,7.13268359375,4.211368083953857,8.650053977966309,0.004785645287483931
1707663728437530600,7.149530517578125,4.261617183685303,8.556734085083008,-0.08614161610603333
1707663728454377500,7.16637744140625,4.18983268737793,8.688339233398438,-0.1866401731967926
1707663728471224300,7.183224365234375,4.1730828285217285,8.650053977966309,-0.10289137065410614
1707663728488071200,7.2000712890625,4.223331928253174,8.657232284545898,-0.08614161610603333
1707663728504918300,7.216918212890625,4.268795490264893,8.762516975402832,-0.0023928226437419653
1707663728521765000,7.23376513671875,4.199403762817383,8.719446182250977,0.09810572862625122
1707663728538612000,7.250612060546875,4.194618225097656,8.700303077697754,0.08853443711996078
1707663728555458800,7.267458740234375,4.237689018249512,8.640482902526855,-0.11006984114646912
1707663728572306000,7.284305908203125,4.204189300537109,8.709874153137207,-0.15074782073497772
1707663728589152800,7.30115283203125,4.240081787109375,8.717052459716797,-0.14117653667926788
1707663728605999600,7.31799951171875,4.230510234832764,8.676374435424805,-0.14117653667926788
1707663728622846700,7.3348466796875,4.192225456237793,8.662017822265625,-0.007178467698395252
1707663728639693600,7.351693603515625,4.208974838256836,8.664410591125488,0.07896314561367035
1707663728656540400,7.36854052734375,4.223331928253174,8.738588333129883,0.08135596662759781
1707663728673387500,7.385387451171875,4.256831645965576,8.724231719970703,-0.02392822690308094
1707663728690234400,7.402234375,4.204189300537109,8.702695846557617,-0.06699903309345245
1707663728707081200,7.419081298828125,4.175475597381592,8.647661209106445,-0.038285162299871445
1707663728723928300,7.43592822265625,4.2209391593933105,8.707481384277344,-0.014356935396790504
1707663728740775200,7.452775146484375,4.230510234832764,8.671588897705078,-0.014356935396790504
1707663728757622000,7.4696220703125,4.110869407653809,8.671588897705078,-0.040677983313798904
1707663728774468900,7.48646875,4.187439441680908,8.662017822265625,-0.20338992774486542
1707663728791316000,7.50331591796875,4.4410786628723145,8.827122688293457,-0.038285162299871445
1707663728808162800,7.520162841796875,4.182653903961182,8.693124771118164,0.1579262912273407
1707663728825010000,7.537010009765625,3.8524444103240967,8.542376518249512,-0.4139583110809326
1707663728841856800,7.553856689453125,4.4721856117248535,8.566305160522461,-0.25363919138908386
1707663728858703600,7.57070361328125,4.3310089111328125,8.7505521774292,0.14835500717163086
1707663728875550700,7.58755078125,3.88594388961792,8.748159408569336,-0.2512463629245758
1707663728892397600,7.6043974609375,4.335794448852539,8.666803359985352,-0.040677983313798904
1707663728909244400,7.621244384765625,4.54636287689209,8.71226692199707,0.17706887423992157
1707663728926091500,7.638091552734375,4.139583110809326,8.865407943725586,0.10049854964017868
1707663728942938400,7.6549384765625,3.9361932277679443,8.506484031677246,-0.05024927482008934
1707663728959785200,7.67178515625,4.41475772857666,8.585447311401367,0.019142581149935722
1707663728976632300,7.68863232421875,4.089334011077881,8.566305160522461,-0.7202396392822266
1707663728993479200,7.705479248046875,4.094119548797607,8.731410026550293,0.32542386651039124
1707663729010326000,7.722325927734375,4.675575256347656,8.987442016601562,0.33020952343940735
1707663729027173000,7.739173095703125,4.070191383361816,8.781659126281738,-0.009571290574967861
1707663729044020000,7.75602001953125,3.94815731048584,8.592626571655273,0.4618147611618042
1707663729060867000,7.7728671875,4.381258487701416,8.568697929382324,-0.6149554252624512
1707663729077714000,7.7897138671875,4.206582069396973,8.889336585998535,-0.3756731450557709
1707663729094560800,7.806560791015625,4.113262176513672,8.781659126281738,-0.16510476171970367
1707663729111407900,7.823407958984375,4.266402721405029,8.504091262817383,0.11006984114646912
1707663729128254700,7.840254638671875,4.261617183685303,8.559126853942871,0.7680960893630981
1707663729145101800,7.857101806640625,4.206582069396973,8.83669376373291,0.13160525262355804
1707663729161948700,7.87394873046875,4.063013076782227,8.539983749389648,-0.8422735929489136
1707663729178795500,7.89079541015625,4.230510234832764,8.69791030883789,-0.7561319470405579
1707663729195642600,7.907642578125,4.4410786628723145,8.846264839172363,-0.34217363595962524
1707663729212489500,7.924489501953125,4.051048755645752,8.657232284545898,0.4618147611618042
1707663729229336300,7.94133642578125,4.170690059661865,8.61894702911377,0.32542386651039124
1707663729246183400,7.958183349609375,4.505684852600098,8.731410026550293,-0.038285162299871445
1707663729263030300,7.9750302734375,4.089334011077881,8.82233715057373,0.24646073579788208
1707663729279877400,7.99187744140625,4.132404804229736,8.563912391662598,-0.45942193269729614
1707663729296724200,8.00872412109375,4.3310089111328125,8.590232849121094,-0.22971096634864807
1707663729313571000,8.025571044921875,4.256831645965576,8.61176872253418,0.07417750358581543
1707663729330418200,8.042418212890626,4.125226020812988,8.72901725769043,0.07178468257188797
1707663729347265000,8.05926513671875,4.311866283416748,8.745766639709473,0.05742774158716202
1707663729364112100,8.076112060546874,4.264009952545166,8.719446182250977,0.21774685382843018
1707663729380959000,8.092958984375,3.9912281036376953,8.666803359985352,0.0023928226437419653
1707663729397806000,8.10980615234375,4.321437835693359,8.635697364807129,-0.11724831163883209
1707663729414653000,8.12665283203125,4.400400638580322,8.738588333129883,-0.05503492057323456
1707663729431499800,8.143499755859375,4.115654945373535,8.731410026550293,0.0023928226437419653
1707663729448347000,8.160346923828126,4.070191383361816,8.578269004821777,0
1707663729465193700,8.17719384765625,4.242474555969238,8.575876235961914,-0.08374879509210587
1707663729482040800,8.194040771484374,4.338187217712402,8.757730484008789,-0.05024927482008934
1707663729498887700,8.2108876953125,4.170690059661865,8.824729919433594,0.05742774158716202
1707663729515734800,8.22773486328125,4.213760852813721,8.6907320022583,0
1707663729532581600,8.24458154296875,4.2209391593933105,8.678768157958984,-0.08374879509210587
1707663729549428700,8.2614287109375,4.137190341949463,8.647661209106445,-0.13878370821475983
1707663729566275600,8.278275634765626,4.249652862548828,8.659625053405762,-0.21774685382843018
1707663729583122400,8.295122314453126,4.376472473144531,8.70508861541748,-0.24167509377002716
1707663729599969500,8.311969482421874,4.182653903961182,8.709874153137207,-0.07178468257188797
1707663729616816400,8.32881640625,4.110869407653809,8.6907320022583,0.12203395366668701
1707663729633663500,8.34566357421875,4.357329845428467,8.733802795410156,0.07657032459974289
1707663729650510300,8.36251025390625,4.232903480529785,8.726624488830566,-0.07657032459974289
1707663729667357400,8.379357421875,4.106083869934082,8.650053977966309,-0.2512463629245758
1707663729684204300,8.396204345703126,4.299902439117432,8.71226692199707,-0.10049854964017868
1707663729701051400,8.413051513671874,4.266402721405029,8.702695846557617,0.10049854964017868
1707663729717898200,8.429898193359374,4.161118507385254,8.673981666564941,-0.09092725813388824
1707663729734745300,8.446745361328125,4.314259052276611,8.839086532592773,0.07657032459974289
1707663729751592200,8.46359228515625,4.266402721405029,8.760123252868652,0.11964113265275955
1707663729768439000,8.48043896484375,4.199403762817383,8.757730484008789,0.01196411345154047
1707663729785286100,8.4972861328125,4.216153621673584,8.681160926818848,-0.007178467698395252
1707663729802133000,8.514133056640626,4.2209391593933105,8.606983184814453,-0.14835500717163086
1707663729818980000,8.53097998046875,4.137190341949463,8.669196128845215,-0.2967100143432617
1707663729835827000,8.547826904296874,4.194618225097656,8.717052459716797,-0.14117653667926788
1707663729852674000,8.564674072265625,4.333401679992676,8.662017822265625,0.038285162299871445
1707663729869521000,8.58152099609375,4.244867324829102,8.695517539978027,0.02632104977965355
1707663729886368000,8.598367919921875,4.1659040451049805,8.7505521774292,0.13878370821475983
1707663729903214800,8.61521484375,4.244867324829102,8.719446182250977,0.11964113265275955
1707663729920062000,8.63206201171875,4.144368648529053,8.745766639709473,0.031106693670153618
1707663729936908800,8.64890869140625,4.2209391593933105,8.585447311401367,-0.2225325107574463
1707663729953756000,8.665755859375,4.264009952545166,8.719446182250977,-0.24885354936122894
1707663729970602800,8.682602783203125,4.2209391593933105,8.559126853942871,-0.3565305769443512
1707663729987449900,8.699449951171875,4.110869407653809,8.764909744262695,-0.0526420995593071
1707663730004296700,8.716296630859375,4.299902439117432,8.745766639709473,0.20338992774486542
1707663730021143800,8.733143798828126,4.35254430770874,8.657232284545898,0.1866401731967926
1707663730037990700,8.74999072265625,4.12761926651001,8.779266357421875,-0.23210379481315613
1707663730054837800,8.766837646484374,4.156332969665527,8.6907320022583,0.2153540402650833
1707663730071684600,8.7836845703125,4.158725738525391,8.453842163085938,-0.5264210104942322
1707663730088531700,8.80053173828125,4.285545349121094,8.800801277160645,-0.3565305769443512
1707663730105378600,8.817378662109375,4.297509670257568,8.762516975402832,0.20578274130821228
1707663730122225700,8.8342255859375,4.218546390533447,8.839086532592773,0.11964113265275955
1707663730139072500,8.851072509765626,4.1419758796691895,8.874979019165039,0.47617170214653015
1707663730155919600,8.867919677734376,4.249652862548828,8.61894702911377,-0.12442677468061447
1707663730172766500,8.884766357421874,4.292723655700684,8.70508861541748,-0.5742774605751038
1707663730189613600,8.901613525390625,4.256831645965576,8.638090133666992,-0.15314064919948578
1707663730206460400,8.91846044921875,4.132404804229736,8.408378601074219,-0.5288137793540955
1707663730223307500,8.9353076171875,4.153940200805664,8.688339233398438,0.05503492057323456
1707663730240154400,8.952154296875,4.309473514556885,8.595019340515137,0.0933200865983963
1707663730257001500,8.96900146484375,4.3310089111328125,8.793622970581055,0.27756741642951965
1707663730273848300,8.985848388671876,4.240081787109375,8.800801277160645,0.12681959569454193
1707663730290695400,9.0026953125,4.153940200805664,8.688339233398438,-0.31345975399017334
1707663730307542300,9.019542236328125,4.022335052490234,8.963513374328613,-0.07417750358581543
1707663730324389400,9.036389404296875,4.232903480529785,8.70508861541748,-0.09092725813388824
1707663730341236200,9.053236328125,4.316651821136475,8.7505521774292,0.0023928226437419653
1707663730358083300,9.070083251953125,4.187439441680908,8.70508861541748,-0.05503492057323456
1707663730374930200,9.08693017578125,4.261617183685303,8.585447311401367,-0.06699903309345245
1707663730391777300,9.10377734375,4.158725738525391,8.700303077697754,-0.17946170270442963
1707663730408624000,9.1206240234375,4.180261135101318,8.714659690856934,-0.0023928226437419653
1707663730425471200,9.13747119140625,4.3549370765686035,8.702695846557617,0.009571290574967861
1707663730442318000,9.154318115234375,4.256831645965576,8.714659690856934,0.062213387340307236
1707663730459165200,9.171165283203125,4.1036906242370605,8.702695846557617,0.07657032459974289
1707663730476012300,9.18801220703125,4.161118507385254,8.683553695678711,-0.04785645380616188
1707663730492859100,9.204859130859376,4.371686935424805,8.700303077697754,-0.2727817893028259
1707663730509706200,9.221706298828124,4.213760852813721,8.61176872253418,-0.27756741642951965
1707663730526553000,9.238552978515624,4.192225456237793,8.678768157958984,0.014356935396790504
1707663730543400200,9.255400146484375,4.247260093688965,8.72901725769043,0.20099709928035736
1707663730560247000,9.2722470703125,4.1491546630859375,8.683553695678711,0.07417750358581543
1707663730577094100,9.28909423828125,4.247260093688965,8.726624488830566,-0.12681959569454193
1707663730593941000,9.30594091796875,4.328616142272949,8.664410591125488,-0.24885354936122894
1707663730610788000,9.3227880859375,4.225724697113037,8.647661209106445,0.02632104977965355
1707663730627635000,9.339635009765624,4.1347975730896,8.585447311401367,-0.1746760457754135
1707663730644482000,9.35648193359375,4.194618225097656,8.71226692199707,-0.10767702013254166
1707663730661329200,9.3733291015625,4.340580463409424,8.714659690856934,-0.11724831163883209
1707663730678176000,9.390176025390625,4.225724697113037,8.678768157958984,-0.11485548317432404
1707663730695023000,9.407023193359375,4.237689018249512,8.748159408569336,0.24406790733337402
1707663730711870000,9.423869873046876,4.161118507385254,8.839086532592773,0.19381862878799438
1707663730728717000,9.440717041015626,4.113262176513672,8.614161491394043,-0.33738797903060913
1707663730745564000,9.45756396484375,4.302295207977295,8.958727836608887,0.13160525262355804
1707663730762411000,9.474410888671875,5.60399055480957,9.025727272033691,3.1992039680480957
1707663730779257900,9.4912578125,4.015156269073486,9.049654960632324,-0.672383189201355
1707663730796105000,9.50810498046875,3.81655216217041,8.745766639709473,-0.727418065071106
1707663730812951800,9.524951904296875,3.8500516414642334,8.300702095031738,-1.191625714302063
1707663730829799000,9.541798828125,4.508078098297119,8.547162055969238,0.1052841991186142
1707663730846645800,9.558645751953126,4.402793884277344,8.819944381713867,1.2370892763137817
1707663730863492900,9.575492919921874,4.264009952545166,8.999405860900879,0.33020952343940735
1707663730880339700,9.592339599609375,4.285545349121094,8.726624488830566,0.040677983313798904
1707663730897186800,9.609186767578125,4.328616142272949,8.630910873413086,-0.5814558863639832
1707663730914034000,9.626033935546875,4.297509670257568,8.508877754211426,-0.5647061467170715
1707663730930880800,9.642880859375,4.2831525802612305,8.49452018737793,-0.11485548317432404
1707663730947728000,9.659727783203126,4.4243292808532715,8.69791030883789,0.5144568681716919
1707663730964574700,9.67657470703125,4.730610370635986,8.169096946716309,-0.8470591902732849
1707663730981421800,9.693421875,4.3788652420043945,8.894122123718262,0.5814558863639832
1707663730998268700,9.7102685546875,4.206582069396973,8.286344528198242,-0.3756731450557709
1707663731015115800,9.72711572265625,4.206582069396973,8.733802795410156,-0.01196411345154047
1707663731031962600,9.743962646484375,4.211368083953857,8.614161491394043,-0.380458801984787
1707663731048809700,9.760809814453125,4.328616142272949,8.733802795410156,0.031106693670153618
1707663731065656600,9.777656494140626,4.1347975730896,8.666803359985352,-0.04546362906694412
1707663731082503700,9.794503662109374,4.122833251953125,8.650053977966309,0.07896314561367035
1707663731099350500,9.8113505859375,4.295116424560547,8.673981666564941,-0.059820566326379776
1707663731116197600,9.82819775390625,4.247260093688965,8.740981101989746,-0.04546362906694412
1707663731133044700,9.845044677734375,4.1347975730896,8.635697364807129,-0.03349951654672623
1707663731149891600,9.8618916015625,4.146761417388916,8.654839515686035,-0.12442677468061447
1707663731166738700,9.87873876953125,4.187439441680908,8.606983184814453,-0.014356935396790504
1707663731183585500,9.89558544921875,4.213760852813721,8.709874153137207,-0.014356935396790504
1707663731200432600,9.9124326171875,4.287938117980957,8.72901725769043,0.035892341285943985
1707663731217279500,9.929279541015624,4.192225456237793,8.738588333129883,-0.09571290761232376
1707663731234126600,9.946126708984375,4.2209391593933105,8.69791030883789,0.016749758273363113
1707663731250973700,9.9629736328125,4.266402721405029,8.695517539978027,0.01196411345154047
1707663731267820500,9.979820556640625,4.3070807456970215,8.724231719970703,-0.05024927482008934
1707663731284667600,9.996667724609376,4.34536600112915,8.717052459716797,-0.08374879509210587
1707663731301514500,10.013514404296876,4.264009952545166,8.673981666564941,-0.07417750358581543
1707663731318361600,10.030361572265624,4.208974838256836,8.585447311401367,-0.08135596662759781
1707663731335208400,10.04720849609375,4.254438877105713,8.70508861541748,-0.10289137065410614
1707663731352055600,10.0640556640625,4.2831525802612305,8.693124771118164,-0.009571290574967861
1707663731368902400,10.08090234375,4.266402721405029,8.707481384277344,-0.07896314561367035
1707663731385749500,10.09774951171875,4.266402721405029,8.652446746826172,-0.11964113265275955
1707663731402596600,10.1145966796875,4.163511276245117,8.745766639709473,-0.05742774158716202
1707663731419443500,10.131443359375,4.098905086517334,8.733802795410156,0.064606212079525
1707663731436290600,10.14829052734375,4.2281174659729,8.719446182250977,0.09092725813388824
1707663731453137400,10.165137451171875,4.268795490264893,8.676374435424805,-0.05024927482008934
1707663731469984500,10.181984619140625,4.158725738525391,8.664410591125488,-0.038285162299871445
1707663731486831400,10.198831298828125,4.187439441680908,8.666803359985352,-0.1052841991186142
1707663731503678500,10.215678466796875,4.2209391593933105,8.662017822265625,-0.1339980661869049
1707663731520525300,10.232525390625,4.201796531677246,8.70508861541748,-0.15314064919948578
1707663731537372400,10.249372314453124,4.254438877105713,8.657232284545898,-0.007178467698395252
1707663731554219300,10.26621923828125,4.271188259124756,8.700303077697754,0.007178467698395252
1707663731571066400,10.28306640625,4.235296249389648,8.638090133666992,-0.019142581149935722
1707663731587913500,10.29991357421875,4.192225456237793,8.707481384277344,-0.07178468257188797
1707663731604760300,10.31676025390625,4.254438877105713,8.700303077697754,-0.009571290574967861
1707663731621607400,10.333607421875,4.2281174659729,8.676374435424805,-0.0933200865983963
1707663731638454300,10.350454345703126,4.242474555969238,8.69791030883789,-0.031106693670153618
1707663731655301400,10.36730126953125,4.285545349121094,8.719446182250977,0.07896314561367035
1707663731672148200,10.384148193359374,4.278367042541504,8.724231719970703,0.07896314561367035
1707663731688995300,10.400995361328125,4.185046672821045,8.733802795410156,-0.07417750358581543
1707663731705842200,10.41784228515625,4.223331928253174,8.681160926818848,-0.062213387340307236
1707663731722689300,10.434689208984375,4.285545349121094,8.673981666564941,-0.06699903309345245
1707663731739536100,10.4515361328125,4.242474555969238,8.740981101989746,-0.07657032459974289
1707663731756383200,10.46838330078125,4.218546390533447,8.685946464538574,-0.02632104977965355
1707663731773230300,10.485230224609374,4.256831645965576,8.671588897705078,-0.004785645287483931
1707663731790077200,10.5020771484375,4.242474555969238,8.6907320022583,-0.02392822690308094
1707663731806924300,10.51892431640625,4.096512317657471,8.678768157958984,-0.07657032459974289
1707663731823771100,10.535771240234375,4.230510234832764,8.662017822265625,0.02871387079358101
1707663731840618200,10.5526181640625,4.2592244148254395,8.669196128845215,-0.05742774158716202
1707663731857465000,10.569465087890626,4.182653903961182,8.662017822265625,-0.038285162299871445
1707663731874312200,10.586312255859376,4.218546390533447,8.702695846557617,-0.05742774158716202
1707663731891159000,10.603158935546874,4.237689018249512,8.666803359985352,-0.019142581149935722
1707663731908006100,10.620006103515625,4.2209391593933105,8.719446182250977,-0.03349951654672623
1707663731924853200,10.636853271484375,4.216153621673584,8.693124771118164,0.007178467698395252
1707663731941700000,10.6537001953125,4.240081787109375,8.657232284545898,-0.01196411345154047
1707663731958547200,10.670547119140625,4.235296249389648,8.650053977966309,-0.13160525262355804
1707663731975394000,10.68739404296875,4.247260093688965,8.717052459716797,-0.12442677468061447
1707663731992241200,10.7042412109375,4.225724697113037,8.6907320022583,-0.04546362906694412
1707663732009088000,10.721087890625,4.1970109939575195,8.650053977966309,-0.1052841991186142
1707663732025935000,10.73793505859375,4.2592244148254395,8.657232284545898,-0.062213387340307236
1707663732042782000,10.754781982421875,4.278367042541504,8.707481384277344,-0.019142581149935722
1707663732059629000,10.771629150390625,4.252045631408691,8.664410591125488,-0.04785645380616188
1707663732076482600,10.788482666015625,4.235296249389648,8.707481384277344,-0.14117653667926788
1707663732093323000,10.805322998046876,4.206582069396973,8.695517539978027,-0.01196411345154047
1707663732110170000,10.822170166015624,4.213760852813721,8.669196128845215,-0.1052841991186142
1707663732127017000,10.839016845703124,4.237689018249512,8.688339233398438,-0.09092725813388824
1707663732143864000,10.855864013671875,4.211368083953857,8.683553695678711,-0.004785645287483931
1707663732160711000,10.8727109375,4.247260093688965,8.520841598510742,-0.09092725813388824
1707663732177558000,10.88955810546875,4.4243292808532715,8.532805442810059,0.019142581149935722
1707663732194404900,10.90640478515625,4.481756687164307,8.415556907653809,-0.10049854964017868
1707663732211252000,10.923251953125,5.072783946990967,8.123632431030273,-0.09092725813388824
1707663732228098800,10.940098876953124,5.769095420837402,8.195417404174805,-0.5407779216766357
1707663732244946000,10.95694580078125,4.713860511779785,8.288737297058105,-0.4211367964744568
1707663732261793000,10.97379296875,3.5222349166870117,8.640482902526855,-0.25363919138908386
1707663732278639900,10.990639892578125,4.572684288024902,8.671588897705078,0.009571290574967861
1707663732295487000,11.007487060546875,4.333401679992676,8.635697364807129,0.24167509377002716
1707663732312333800,11.024333740234376,3.7734813690185547,8.762516975402832,-0.21296121180057526
1707663732329181000,11.041180908203126,4.096512317657471,8.7505521774292,0.02632104977965355
1707663732346027800,11.05802783203125,4.254438877105713,8.819944381713867,-0.11485548317432404
1707663732362875000,11.074875,4.096512317657471,8.889336585998535,0.21296121180057526
1707663732379722000,11.091721923828125,4.266402721405029,8.915657043457031,0.1579262912273407
1707663732396568800,11.10856884765625,4.673182487487793,8.70508861541748,0.07417750358581543
1707663732413416000,11.125416015625,4.333401679992676,8.664410591125488,0.10289137065410614
1707663732430262800,11.1422626953125,4.261617183685303,8.595019340515137,0.19381862878799438
1707663732447110000,11.15910986328125,4.613361835479736,8.707481384277344,0.275174617767334
1707663732463956700,11.175956787109374,4.6301116943359375,8.650053977966309,0.21774685382843018
1707663732480803800,11.192803955078125,4.565505504608154,8.551948547363281,0.19142581522464752
1707663732497650700,11.209650634765625,4.694717884063721,8.468199729919434,-0.21296121180057526
1707663732514497800,11.226497802734375,4.7952165603637695,8.504091262817383,-0.20338992774486542
1707663732531345000,11.243344970703125,4.680361270904541,8.429914474487305,-0.1339980661869049
1707663732548191700,11.260191650390626,4.6061835289001465,8.50169849395752,0.0933200865983963
1707663732565038800,11.277038818359374,4.869394302368164,8.508877754211426,0.1986042857170105
1707663732581885700,11.2938857421875,4.807180881500244,8.592626571655273,0.18424734473228455
1707663732598732800,11.31073291015625,4.5822553634643555,8.614161491394043,0.004785645287483931
1707663732615579600,11.32757958984375,4.685146808624268,8.37727165222168,-0.41156548261642456
1707663732632426800,11.3444267578125,4.807180881500244,8.276773452758789,-0.5527420043945312
1707663732649273900,11.36127392578125,4.759324073791504,8.331808090209961,-0.4139583110809326
1707663732666120700,11.37812060546875,4.783252239227295,8.516056060791016,-0.09571290761232376
1707663732682967800,11.3949677734375,4.685146808624268,8.513663291931152,0.16749759018421173
1707663732699814700,11.411814697265624,4.716253280639648,8.571090698242188,0.15314064919948578
1707663732716661800,11.428661865234375,4.551148891448975,8.532805442810059,-0.11246266216039658
1707663732733508600,11.445508544921875,4.610969066619873,8.391629219055176,-0.4091726839542389
1707663732750355700,11.462355712890625,4.811966419219971,8.350951194763184,-0.6173482537269592
1707663732767202600,11.47920263671875,4.694717884063721,8.350951194763184,-0.3852444589138031
1707663732784049700,11.496049560546876,4.694717884063721,8.389236450195312,-0.014356935396790504
1707663732800896800,11.512896728515624,4.843072891235352,8.441878318786621,0.26560330390930176
1707663732817743600,11.52974365234375,4.816751956939697,8.525627136230469,0.33020952343940735
1707663732834590700,11.5465908203125,4.792823791503906,8.616554260253906,0.08374879509210587
1707663732851437600,11.5634375,4.8574299812316895,8.561519622802734,-0.19381862878799438
1707663732868284700,11.58028466796875,4.833501815795898,8.432307243347168,-0.33499518036842346
1707663732885131500,11.597131591796876,4.759324073791504,8.415556907653809,-0.35413774847984314
1707663732901978600,11.613978515625,4.914857864379883,8.410771369934082,-0.035892341285943985
1707663732918825700,11.63082568359375,4.960321426391602,8.461020469665527,0.2105683982372284
1707663732935672600,11.647672607421875,4.8191447257995605,8.516056060791016,0.3326023519039154
1707663732952519700,11.664519775390625,4.823930263519287,8.535198211669922,0.26560330390930176
1707663732969366500,11.681366455078125,4.742574691772461,8.484949111938477,0.06939185410737991
1707663732986213600,11.698213623046875,4.72582483291626,8.508877754211426,-0.04546362906694412
1707663733003060500,11.715060546875,4.680361270904541,8.496912956237793,-0.14117653667926788
1707663733019907600,11.731907470703124,4.7473602294921875,8.429914474487305,-0.08374879509210587
1707663733036754700,11.748754638671874,4.7473602294921875,8.451449394226074,-0.07417750358581543
1707663733053601500,11.7656015625,4.761716842651367,8.461020469665527,0.07657032459974289
1707663733070448600,11.78244873046875,4.802394866943359,8.508877754211426,0.22013968229293823
1707663733087295500,11.79929541015625,4.783252239227295,8.508877754211426,0.20099709928035736
1707663733104142600,11.816142578125,4.742574691772461,8.470592498779297,0.08135596662759781
1707663733120989400,11.832989501953126,4.6995038986206055,8.417949676513672,-0.15314064919948578
1707663733137836500,11.84983642578125,4.764110088348389,8.346165657043457,-0.397208571434021
1707663733154683400,11.866683349609374,4.673182487487793,8.300702095031738,-0.4546363055706024
1707663733171530500,11.883530517578125,4.689932346343994,8.434700012207031,-0.1579262912273407
1707663733188377600,11.900377685546875,4.826323509216309,8.549555778503418,0.12442677468061447
1707663733205224400,11.917224365234375,4.622933387756348,8.614161491394043,0.2799602448940277
1707663733222071600,11.934071533203126,4.527220249176025,8.561519622802734,0.10289137065410614
1707663733238918400,11.95091845703125,4.680361270904541,8.513663291931152,-0.2273181527853012
1707663733255765500,11.967765625,4.67078971862793,8.578269004821777,-0.5048855543136597
1707663733272612400,11.9846123046875,4.716253280639648,8.554341316223145,-0.39960137009620667
1707663733289459500,12.00145947265625,4.790431022644043,8.537590980529785,-0.0023928226437419653
1707663733306306600,12.018306640625,4.646861553192139,8.496912956237793,0.37088751792907715
1707663733323153400,12.0351533203125,4.661218643188477,8.638090133666992,0.4426721930503845
1707663733340000500,12.05200048828125,4.78803825378418,8.61176872253418,0.10767702013254166
1707663733356847400,12.068847412109376,4.661218643188477,8.422736167907715,-0.363709032535553
1707663733373694500,12.085694580078124,4.651647090911865,8.310273170471191,-0.5335994362831116
1707663733390541600,12.10254150390625,4.73300313949585,8.367700576782227,-0.22013968229293823
1707663733407388400,12.119388427734375,4.620540618896484,8.537590980529785,0.35892340540885925
1707663733424235500,12.136235595703125,4.783252239227295,8.513663291931152,0.6580262184143066
1707663733441082400,12.153082275390625,4.728217601776123,8.518448829650879,0.30149564146995544
1707663733457929500,12.169929443359376,4.639683246612549,8.372486114501953,-0.17706887423992157
1707663733474776600,12.186776611328124,4.682754039764404,8.401200294494629,-0.5335994362831116
1707663733491623400,12.20362353515625,4.761716842651367,8.319844245910645,-0.37088751792907715
1707663733508470500,12.220470458984375,4.754538536071777,8.484949111938477,0.11724831163883209
1707663733525317400,12.2373173828125,4.728217601776123,8.673981666564941,0.5623133182525635
1707663733542164500,12.25416455078125,4.826323509216309,8.693124771118164,0.46899324655532837
1707663733559011600,12.271011474609375,4.759324073791504,8.583054542541504,0.04785645380616188
1707663733575858400,12.2878583984375,4.644468784332275,8.365307807922363,-0.5479564070701599
1707663733592705500,12.30470556640625,4.591826438903809,8.329415321350098,-0.5527420043945312
1707663733609552400,12.321552490234374,4.701896667480469,8.38684368133545,-0.2273181527853012
1707663733626399500,12.3383994140625,4.8574299812316895,8.542376518249512,0.2967100143432617
1707663733643246600,12.35524658203125,4.704289436340332,8.568697929382324,0.4833501875400543
1707663733660093400,12.372093505859375,4.642076015472412,8.496912956237793,0.1746760457754135
1707663733676940500,12.3889404296875,4.673182487487793,8.408378601074219,-0.33499518036842346
1707663733693787400,12.405787353515626,4.761716842651367,8.305487632751465,-0.7776673436164856
1707663733710634500,12.422634521484374,4.6995038986206055,8.327022552490234,-0.5838487148284912
1707663733727481600,12.439481689453125,4.847858905792236,8.425128936767578,-0.10767702013254166
1707663733744328400,12.456328369140625,4.95074987411499,8.568697929382324,0.47617170214653015
1707663733761175600,12.473175537109375,4.560719966888428,8.48016357421875,0.4450650215148926
1707663733778022700,12.490022705078125,4.596612453460693,8.475378036499023,0.06939185410737991
1707663733794869500,12.506869384765626,4.9435715675354,8.489734649658203,-0.6149554252624512
1707663733811716600,12.523716552734374,4.790431022644043,8.322237014770508,-0.7896314859390259
1707663733828563500,12.5405634765625,4.5822553634643555,8.298309326171875,-0.19142581522464752
1707663733845410600,12.55741064453125,4.823930263519287,8.389236450195312,0.3852444589138031
1707663733862257400,12.57425732421875,4.749752998352051,8.547162055969238,0.6771687865257263
1707663733879104500,12.5911044921875,4.563112735748291,8.70508861541748,0.363709032535553
1707663733895951600,12.60795166015625,4.668396949768066,8.628518104553223,-0.17228323221206665
1707663733912798500,12.624798583984376,4.737788677215576,8.528019905090332,-0.5838487148284912
1707663733929645600,12.6416455078125,4.622933387756348,8.602197647094727,-0.2967100143432617
1707663733946492700,12.65849267578125,4.503292083740234,8.499305725097656,0.2105683982372284
1707663733963339500,12.675339599609375,4.60139799118042,8.685946464538574,0.5599204897880554
1707663733980186600,12.6921865234375,4.661218643188477,8.628518104553223,0.6747759580612183
1707663733997033700,12.70903369140625,4.591826438903809,8.628518104553223,0.1339980661869049
1707663734013880600,12.725880615234376,4.500899314880371,8.58784008026123,-0.46899324655532837
1707663734030727700,12.742727783203126,4.563112735748291,8.444271087646484,-0.6245267391204834
1707663734047574500,12.759574462890624,4.357329845428467,8.623732566833496,-0.19621145725250244
1707663734064421600,12.776421630859375,4.6995038986206055,8.62612533569336,0.4139583110809326
1707663734081268700,12.793268798828125,4.706682205200195,8.681160926818848,0.698704183101654
1707663734098115600,12.810115478515625,4.560719966888428,8.525627136230469,0.12681959569454193
1707663734114962700,12.826962646484375,4.5583271980285645,8.372486114501953,-0.4259224236011505
1707663734131809800,12.843809814453126,4.599005222320557,8.389236450195312,-0.6867401003837585
1707663734148656600,12.86065673828125,4.8574299812316895,8.420342445373535,-0.3684946894645691
1707663734165503700,12.877503662109374,4.816751956939697,8.417949676513672,0.19621145725250244
1707663734182350600,12.8943505859375,4.668396949768066,8.422736167907715,0.5383850932121277
1707663734199197700,12.91119775390625,4.618147850036621,8.451449394226074,0.062213387340307236
1707663734216044800,12.928044921875,4.764110088348389,8.233702659606934,-0.5312066078186035
1707663734232891600,12.9448916015625,4.704289436340332,8.300702095031738,-0.5000999569892883
1707663734249738800,12.96173876953125,4.634897232055664,8.315058708190918,-0.24885354936122894
1707663734266585900,12.9785859375,4.66361141204834,8.367700576782227,0.16031911969184875
1707663734283432700,12.9954326171875,4.467400074005127,8.547162055969238,0.4450650215148926
1707663734300279800,13.01227978515625,4.6372904777526855,8.647661209106445,0.1339980661869049
1707663734317127000,13.029126953125,4.656432628631592,8.549555778503418,-0.26081767678260803
1707663734333973800,13.045973876953125,4.443471431732178,8.372486114501953,-0.5790630578994751
1707663734350820900,13.06282080078125,4.5391845703125,8.437092781066895,-0.4307080805301666
1707663734367668000,13.07966796875,4.716253280639648,8.764909744262695,0.2847459018230438
1707663734384514800,13.096514892578124,4.689932346343994,8.796015739440918,0.4977070987224579
1707663734401362000,13.11336181640625,4.527220249176025,8.561519622802734,0.2871387302875519
1707663734418209000,13.130208984375,4.53200626373291,8.535198211669922,-0.7106683254241943
1707663734435055900,13.147055908203125,4.898108005523682,8.616554260253906,-0.10767702013254166
1707663734451903000,13.163903076171875,4.479363918304443,8.652446746826172,-0.11964113265275955
1707663734468750000,13.18075,4.515256404876709,8.508877754211426,0.0933200865983963
1707663734485597000,13.197596923828126,4.737788677215576,8.561519622802734,0.6293123364448547
1707663734502444000,13.214444091796874,4.591826438903809,8.762516975402832,-0.15553347766399384
1707663734519291100,13.231291015625,4.639683246612549,8.513663291931152,-0.21296121180057526
1707663734536138000,13.248137939453125,4.759324073791504,8.329415321350098,-0.6484549641609192
1707663734552985000,13.264985107421875,4.677968502044678,8.300702095031738,-0.2991028428077698
1707663734569832200,13.281832275390625,4.642076015472412,8.508877754211426,0.22492532432079315
1707663734586679000,13.298678955078126,4.807180881500244,8.429914474487305,0.11724831163883209
1707663734603526100,13.315526123046874,4.685146808624268,8.358129501342773,-0.13160525262355804
1707663734620373200,13.332373291015625,4.431507587432861,8.315058708190918,-0.4785645306110382
1707663734637220400,13.349220458984375,4.709074974060059,8.173882484436035,-0.5359922647476196
1707663734654067200,13.366067138671875,4.697110652923584,8.446663856506348,-0.4043870270252228
1707663734670914300,13.382914306640625,4.599005222320557,8.566305160522461,0.3565305769443512
1707663734687761400,13.399761474609376,4.589433670043945,8.3629150390625,0.062213387340307236
1707663734704608300,13.416608154296876,4.213760852813721,8.544769287109375,-0.15074782073497772
1707663734721455400,13.433455322265624,4.780859470367432,8.578269004821777,-0.06939185410737991
1707663734738302200,13.45030224609375,4.474578380584717,8.73619556427002,-0.3852444589138031
1707663734755149300,13.4671494140625,4.383651256561279,8.492127418518066,0.2967100143432617
1707663734771996400,13.483996337890625,4.766502857208252,8.61894702911377,0.4163511395454407
1707663734788843500,13.500843505859375,4.776073932647705,8.74337387084961,0.3206382393836975
1707663734805690600,13.517690673828126,4.491328239440918,8.597412109375,0.4211367964744568
1707663734822537500,13.534537353515624,4.534399032592773,8.590232849121094,0.16031911969184875
1707663734839384600,13.551384521484374,4.577469825744629,8.678768157958984,0.21774685382843018
1707663734856231700,13.568231689453125,4.431507587432861,8.791230201721191,0.6101697683334351
1707663734873078500,13.58507861328125,4.644468784332275,8.846264839172363,0.7393822073936462
1707663734889925600,13.601925537109375,4.668396949768066,8.810373306274414,0.6269195079803467
1707663734906772700,13.618772705078126,4.118047714233398,8.427521705627441,0.04785645380616188
1707663734923619800,13.635619873046876,4.453042984008789,8.738588333129883,-0.15553347766399384
1707663734940466700,13.652466796875,5.082355499267578,8.82951545715332,0.2560320198535919
1707663734957313800,13.669313720703125,4.388436794281006,8.673981666564941,0.4785645306110382
1707663734974161000,13.686160888671875,4.029513359069824,8.764909744262695,0.05024927482008934
1707663734991007700,13.7030078125,4.934000492095947,8.779266357421875,-0.14356936514377594
1707663735007854800,13.719854736328125,4.644468784332275,8.752944946289062,-0.32542386651039124
1707663735024702000,13.736701904296876,4.015156269073486,8.544769287109375,-0.4307080805301666
1707663735041549000,13.753549072265624,4.563112735748291,8.530412673950195,-0.3852444589138031
1707663735058396000,13.77039599609375,4.4410786628723145,8.63330364227295,-0.13639089465141296
1707663735075243000,13.787242919921875,4.249652862548828,8.549555778503418,-0.19381862878799438
1707663735092090000,13.804090087890625,4.486542224884033,8.57348346710205,-0.5599204897880554
1707663735108937200,13.820937255859375,4.402793884277344,8.508877754211426,-0.27756741642951965
1707663735125784000,13.8377841796875,4.254438877105713,8.336593627929688,-0.4570291340351105
1707663735142631200,13.854631103515626,4.503292083740234,8.279166221618652,-0.21774685382843018
1707663735159478300,13.871478271484374,4.266402721405029,8.305487632751465,-0.3613162338733673
1707663735176325000,13.8883251953125,4.230510234832764,8.367700576782227,-0.1986042857170105
1707663735193172200,13.905172119140625,4.59421968460083,8.530412673950195,-0.4977070987224579
1707663735210019300,13.922019287109375,4.498506546020508,8.549555778503418,-0.33499518036842346
1707663735226866400,13.938866455078125,4.12761926651001,8.4562349319458,0.15553347766399384
1707663735243713500,13.955713623046876,4.256831645965576,8.71226692199707,-0.1459621787071228
1707663735260560400,13.972560302734376,4.979464054107666,8.657232284545898,-0.20578274130821228
1707663735277407500,13.989407470703124,4.273581027984619,8.745766639709473,-0.26560330390930176
1707663735294254600,14.006254638671875,4.201796531677246,8.535198211669922,0.17706887423992157
1707663735311101700,14.023101806640625,4.60857629776001,8.616554260253906,-0.04785645380616188
1707663735327948500,14.039948486328125,4.486542224884033,8.640482902526855,0.08853443711996078
1707663735344795600,14.056795654296875,4.374079704284668,8.824729919433594,0.31106695532798767
1707663735361642800,14.073642822265626,4.433900356292725,8.755337715148926,-0.031106693670153618
1707663735378489900,14.09048974609375,4.517649173736572,8.597412109375,0.24885354936122894
1707663735395336700,14.107336669921875,4.333401679992676,8.693124771118164,0.04785645380616188
1707663735412183800,14.124183837890625,4.543970108032227,8.599804878234863,0.2392822653055191
1707663735429031000,14.141031005859375,4.512863636016846,8.62612533569336,0.4378865361213684
1707663735445878000,14.1578779296875,4.374079704284668,8.72183895111084,-0.05503492057323456
1707663735462725000,14.17472509765625,4.563112735748291,8.772088050842285,-0.0526420995593071
1707663735479572000,14.191572021484374,4.505684852600098,8.551948547363281,-0.13160525262355804
1707663735496419000,14.208419189453124,4.240081787109375,8.642875671386719,-0.07417750358581543
1707663735513266200,14.22526611328125,4.560719966888428,8.719446182250977,0.24646073579788208
1707663735530113300,14.24211328125,4.247260093688965,8.93958568572998,0.1339980661869049
1707663735546960100,14.258960205078125,4.357329845428467,8.666803359985352,-0.24167509377002716
1707663735563807200,14.27580712890625,4.677968502044678,8.666803359985352,-0.5024927258491516
1707663735580654300,14.292654296875,4.287938117980957,8.609375953674316,-0.1052841991186142
1707663735597501400,14.30950146484375,4.2831525802612305,8.6907320022583,-0.10049854964017868
1707663735614348500,14.3263486328125,4.584648132324219,8.58066177368164,0.0933200865983963
1707663735631195600,14.343195556640625,4.450650215148926,8.628518104553223,-0.1746760457754135
1707663735648042500,14.36004248046875,4.35254430770874,8.425128936767578,-0.5240281820297241
1707663735664889600,14.3768896484375,4.453042984008789,8.484949111938477,-0.33020952343940735
1707663735681736700,14.39373681640625,4.359723091125488,8.50169849395752,-0.16271193325519562
1707663735698583800,14.410583740234374,4.46979284286499,8.37727165222168,0.3206382393836975
1707663735715431000,14.427430908203124,4.3070807456970215,8.676374435424805,-0.0526420995593071
1707663735732278000,14.444278076171875,4.29033088684082,8.496912956237793,-0.0933200865983963
1707663735749124900,14.461124755859375,4.53200626373291,8.34855842590332,-0.31345975399017334
1707663735765972000,14.477971923828125,4.261617183685303,8.547162055969238,-0.5144568681716919
1707663735782819000,14.494819091796876,4.266402721405029,8.599804878234863,0.28235307335853577
1707663735799666200,14.511666259765626,4.237689018249512,8.776873588562012,0.38763725757598877
1707663735816513300,14.52851318359375,4.297509670257568,8.602197647094727,-0.038285162299871445
1707663735833360100,14.545360107421875,4.000799655914307,8.714659690856934,-0.19621145725250244
1707663735850207200,14.562207275390625,4.244867324829102,8.568697929382324,-0.4378865361213684
1707663735867054300,14.579054443359375,4.575077056884766,8.85344409942627,0.019142581149935722
1707663735883901400,14.5959013671875,4.347758769989014,8.86062240600586,0.5072783827781677
1707663735900748500,14.61274853515625,4.299902439117432,8.760123252868652,0.2871387302875519
1707663735917595600,14.629595703125,4.551148891448975,8.72183895111084,-0.24885354936122894
1707663735934442800,14.64644287109375,4.321437835693359,8.630910873413086,-0.4713860750198364
1707663735951289600,14.66328955078125,4.553541660308838,8.700303077697754,-0.035892341285943985
1707663735968136700,14.68013671875,4.644468784332275,8.863015174865723,0.016749758273363113
1707663735984983800,14.69698388671875,4.333401679992676,8.599804878234863,0.15314064919948578
1707663736001831000,14.713830810546876,4.18983268737793,8.535198211669922,0.4019941985607147
1707663736018678000,14.730677978515626,4.242474555969238,8.38684368133545,-0.3565305769443512
1707663736035525000,14.747525146484374,4.560719966888428,8.800801277160645,-0.14356936514377594
1707663736052372200,14.764372314453125,4.587040901184082,8.640482902526855,-0.13878370821475983
1707663736069219300,14.78121923828125,4.275974273681641,8.37966537475586,0.08135596662759781
1707663736086066400,14.79806640625,3.7710886001586914,8.707481384277344,0.3613162338733673
1707663736102913300,14.814913330078125,4.706682205200195,8.477770805358887,-0.10049854964017868
1707663736119760400,14.831760498046876,4.515256404876709,8.707481384277344,0.08135596662759781
1707663736136607500,14.848607421875,3.964907169342041,8.444271087646484,-0.2991028428077698
1707663736153454600,14.86545458984375,4.321437835693359,8.530412673950195,-0.2560320198535919
1707663736170301700,14.8823017578125,4.524827480316162,8.46580696105957,-0.062213387340307236
1707663736187148800,14.899148681640625,4.125226020812988,8.685946464538574,0.7992027401924133
1707663736203996000,14.915995849609375,4.170690059661865,8.635697364807129,-0.19381862878799438
1707663736220843000,14.932843017578126,4.565505504608154,8.389236450195312,-0.4091726839542389
1707663736237690000,14.949690185546874,4.405186653137207,8.559126853942871,-0.15314064919948578
1707663736254537000,14.966536865234374,4.110869407653809,8.819944381713867,-0.16271193325519562
1707663736271384300,14.98338427734375,4.48414945602417,8.441878318786621,0.2105683982372284
1707663736288231200,15.000231201171875,4.292723655700684,8.470592498779297,0.11724831163883209
1707663736305078300,15.017078369140625,4.106083869934082,8.884550094604492,0.06699903309345245
1707663736321925400,15.03392529296875,4.510470867156982,8.805587768554688,-0.6604190468788147
1707663736338772500,15.0507724609375,4.622933387756348,8.640482902526855,-0.2105683982372284
1707663736355619600,15.06761962890625,4.094119548797607,8.80798053741455,0.35413774847984314
1707663736372466700,15.084466796875,4.086941242218018,8.700303077697754,0.275174617767334
1707663736389313800,15.101313720703125,4.704289436340332,8.851051330566406,0.02392822690308094
1707663736406161000,15.118160888671875,4.677968502044678,8.599804878234863,-0.31106695532798767
1707663736423008000,15.135008056640626,4.086941242218018,8.731410026550293,-0.1986042857170105
1707663736439855000,15.151855224609376,4.204189300537109,8.470592498779297,0.059820566326379776
1707663736456702200,15.1687021484375,4.666004180908203,8.542376518249512,0.40677985548973083
1707663736473549300,15.18554931640625,4.366901397705078,8.516056060791016,0.09092725813388824
1707663736490396400,15.202396484375,4.106083869934082,8.508877754211426,-0.11006984114646912
1707663736507243500,15.219243408203125,4.5583271980285645,8.561519622802734,-0.35892340540885925
1707663736524090600,15.236090576171875,4.453042984008789,8.50169849395752,-0.019142581149935722
1707663736540937500,15.2529375,3.9984066486358643,8.398807525634766,0.10049854964017868
1707663736557784600,15.26978466796875,4.551148891448975,8.437092781066895,-0.1579262912273407
1707663736574631700,15.286631591796874,4.9363932609558105,8.420342445373535,-0.4163511395454407
1707663736591478800,15.303478759765625,3.926621913909912,8.532805442810059,-0.07657032459974289
1707663736608326000,15.320325927734375,4.512863636016846,8.343772888183594,0.0023928226437419653
1707663736625173000,15.337173095703125,4.639683246612549,8.640482902526855,0.014356935396790504
1707663736642020000,15.35402001953125,3.8596229553222656,8.886942863464355,0.08374879509210587
1707663736658867200,15.3708671875,4.374079704284668,8.695517539978027,0.15553347766399384
1707663736675714300,15.38771435546875,4.560719966888428,8.925228118896484,0.2727817893028259
1707663736692561400,15.4045615234375,3.9361932277679443,9.078369140625,0.10289137065410614
1707663736709408500,15.421408447265625,4.3788652420043945,8.83669376373291,0.08853443711996078
1707663736726255600,15.438255615234375,4.658825874328613,9.06401252746582,0.7250252366065979
1707663736743102700,15.455102783203126,4.295116424560547,8.944371223449707,0.5814558863639832
1707663736759949800,15.47194970703125,4.299902439117432,8.901300430297852,0.01196411345154047
1707663736776797000,15.488796875,4.639683246612549,8.623732566833496,0.22013968229293823
1707663736793644000,15.50564404296875,4.34536600112915,8.987442016601562,0.2512463629245758
1707663736810491100,15.5224912109375,4.357329845428467,8.83669376373291,0.2919243574142456
1707663736827338200,15.539338134765625,4.6061835289001465,8.549555778503418,0.2225325107574463
1707663736844185300,15.556185302734375,4.115654945373535,8.367700576782227,0.07417750358581543
1707663736861032400,15.573032470703126,4.158725738525391,8.566305160522461,-0.26081767678260803
1707663736877879600,15.589879638671874,4.381258487701416,8.635697364807129,0.031106693670153618
1707663736894726700,15.6067265625,4.35254430770874,8.796015739440918,0.14356936514377594
1707663736911573800,15.62357373046875,3.8739798069000244,8.4562349319458,0.13639089465141296
1707663736928420900,15.6404208984375,3.90987229347229,8.504091262817383,-0.30628129839897156
1707663736945268000,15.65726806640625,4.60139799118042,8.477770805358887,-0.3900300860404968
1707663736962115000,15.674114990234376,4.240081787109375,8.669196128845215,-0.26560330390930176
1707663736978962200,15.690962158203124,4.170690059661865,8.516056060791016,-0.23449662327766418
1707663736995809300,15.707809326171875,4.443471431732178,8.310273170471191,-0.0526420995593071
1707663737012656600,15.72465673828125,4.426722049713135,8.530412673950195,-0.08135596662759781
1707663737029503700,15.741503662109375,4.42193603515625,8.50169849395752,-0.20578274130821228
1707663737046350800,15.758350830078125,4.146761417388916,8.353343963623047,-0.6891329288482666
1707663737063198000,15.775197998046876,4.199403762817383,8.300702095031738,-0.4378865361213684
1707663737080045000,15.792045166015624,4.512863636016846,8.38684368133545,-0.16031911969184875
1707663737096892200,15.80889208984375,4.211368083953857,8.46580696105957,0.15553347766399384
1707663737113739300,15.8257392578125,4.094119548797607,8.482556343078613,-0.04546362906694412
1707663737130586400,15.84258642578125,4.342973232269287,8.23848819732666,-0.26560330390930176
1707663737147433500,15.85943359375,4.1491546630859375,8.506484031677246,-0.035892341285943985
1707663737164280600,15.876280517578126,4.261617183685303,8.470592498779297,-0.2919243574142456
1707663737181127700,15.893127685546874,4.675575256347656,8.688339233398438,0.2967100143432617
1707663737197974800,15.909974853515624,4.429114818572998,8.769695281982422,0.3852444589138031
1707663737214822000,15.92682177734375,3.8117663860321045,8.673981666564941,0.13878370821475983
1707663737231669000,15.9436689453125,4.393222332000732,8.678768157958984,-0.22013968229293823
1707663737248516000,15.96051611328125,4.7473602294921875,9.05444049835205,0.02632104977965355
1707663737265363200,15.97736328125,4.393222332000732,9.073583602905273,0.5958128571510315
1707663737282210600,15.99421044921875,4.254438877105713,8.86062240600586,0.32542386651039124
1707663737299057700,16.0110576171875,4.587040901184082,8.760123252868652,0.2847459018230438
1707663737315904800,16.02790478515625,4.304687976837158,9.154939651489258,0.02871387079358101
1707663737332752000,16.044751953125,4.364508628845215,8.851051330566406,-0.09092725813388824
1707663737349599000,16.061598876953123,4.754538536071777,9.066405296325684,0.20099709928035736
1707663737366446000,16.078446044921876,4.393222332000732,8.652446746826172,0.5647061467170715
1707663737383293200,16.095293212890624,3.9385859966278076,8.83669376373291,0.4331009089946747
1707663737400140300,16.112140380859376,4.728217601776123,8.719446182250977,0.3206382393836975
1707663737416987400,16.1289873046875,4.917250633239746,8.798408508300781,-0.031106693670153618
1707663737433834500,16.14583447265625,4.012763500213623,8.673981666564941,0.2632105052471161
1707663737450681600,16.162681640625,4.091726779937744,8.542376518249512,0.09092725813388824
1707663737467528700,16.17952880859375,4.644468784332275,8.688339233398438,0.4785645306110382
1707663737484376000,16.1963759765625,4.335794448852539,8.695517539978027,0.040677983313798904
1707663737501223200,16.21322314453125,4.01037073135376,8.520841598510742,-0.13160525262355804
1707663737518070300,16.2300703125,4.486542224884033,8.458627700805664,0.014356935396790504
1707663737534917400,16.24691748046875,4.211368083953857,8.444271087646484,-0.004785645287483931
1707663737551764500,16.263764404296875,3.88594388961792,8.628518104553223,-0.062213387340307236
1707663737568611600,16.280611572265624,4.661218643188477,8.523234367370605,-0.009571290574967861
1707663737585458700,16.297458740234376,4.208974838256836,8.769695281982422,-0.275174617767334
1707663737602305800,16.314305908203124,4.036691665649414,8.415556907653809,-0.3900300860404968
1707663737619153200,16.331153076171876,3.9529430866241455,8.621339797973633,-0.24406790733337402
1707663737636000300,16.348000244140625,4.436293125152588,8.551948547363281,-0.22971096634864807
1707663737652847400,16.364847412109373,4.2209391593933105,8.748159408569336,-0.02153540402650833
1707663737669694500,16.381694580078126,4.256831645965576,8.717052459716797,-0.31106695532798767
1707663737686541600,16.39854150390625,4.175475597381592,8.6907320022583,-0.19381862878799438
1707663737703388700,16.415388671875,3.950550079345703,8.688339233398438,-0.576670229434967
1707663737720236000,16.432236083984375,4.314259052276611,8.901300430297852,-0.06699903309345245
1707663737737083100,16.449083251953127,4.5822553634643555,8.585447311401367,-0.09571290761232376
1707663737753930200,16.46593017578125,3.9744784832000732,8.85344409942627,-0.4618147611618042
1707663737770777300,16.48277734375,4.242474555969238,8.602197647094727,0.4307080805301666
1707663737787625500,16.49962548828125,4.589433670043945,8.693124771118164,-0.42352959513664246
1707663737804471600,16.516471435546876,4.122833251953125,8.762516975402832,-0.32303106784820557
1707663737821318700,16.533318603515625,4.584648132324219,8.403593063354492,0.32303106784820557
1707663737838166000,16.550166015625,4.47697114944458,8.549555778503418,0.16271193325519562
1707663737855013000,16.56701318359375,3.9625144004821777,8.506484031677246,-0.0526420995593071
1707663737871860200,16.583860107421874,4.0797624588012695,8.597412109375,0.32542386651039124
1707663737888707300,16.600707275390626,4.862215518951416,8.82233715057373,0.11964113265275955
1707663737905554400,16.617554443359374,4.304687976837158,8.700303077697754,-0.24167509377002716
1707663737922401800,16.63440185546875,3.933800458908081,8.592626571655273,0.6197410821914673
1707663737939249000,16.651248779296875,4.4650068283081055,8.659625053405762,0.31345975399017334
1707663737956096000,16.668095947265623,4.302295207977295,8.508877754211426,-0.1866401731967926
1707663737972943000,16.684943115234375,4.175475597381592,8.647661209106445,0.03349951654672623
1707663737989790200,16.701790283203124,4.618147850036621,8.410771369934082,0.12681959569454193
1707663738006637300,16.71863720703125,4.400400638580322,8.685946464538574,0.3924229145050049
1707663738023484700,16.735484619140625,3.610769271850586,8.516056060791016,0.3565305769443512
1707663738040331800,16.752331787109377,4.60139799118042,8.394021987915039,0.014356935396790504
1707663738057179000,16.769178955078125,4.264009952545166,8.95394229888916,-0.1339980661869049
1707663738074026000,16.78602587890625,3.696911096572876,8.453842163085938,-0.016749758273363113
1707663738090873000,16.802873046875,4.876572608947754,8.458627700805664,0.2847459018230438
1707663738107720400,16.819720458984374,4.481756687164307,8.738588333129883,-0.06699903309345245
1707663738124567600,16.836567626953126,3.7782669067382812,8.664410591125488,-0.11006984114646912
1707663738141414700,16.85341455078125,4.587040901184082,8.47298526763916,-0.1052841991186142
1707663738158261800,16.87026171875,4.711467742919922,8.738588333129883,-0.6532405614852905
1707663738175108900,16.88710888671875,4.151547431945801,8.851051330566406,-0.14835500717163086
1707663738191956200,16.903956298828124,4.261617183685303,8.858229637145996,-0.20338992774486542
1707663738208803300,16.92080322265625,4.742574691772461,8.8438720703125,-0.42352959513664246
1707663738225650400,16.937650390625,3.955335855484009,8.827122688293457,-0.5599204897880554
1707663738242497500,16.95449755859375,4.18983268737793,8.6907320022583,-0.760917603969574
1707663738259345000,16.971344970703125,4.986642360687256,8.944371223449707,-0.363709032535553
1707663738276192000,16.98819189453125,4.211368083953857,9.09272575378418,-0.26560330390930176
1707663738293039000,17.0050390625,3.6131622791290283,8.72183895111084,-0.1746760457754135
1707663738309886200,17.02188623046875,4.802394866943359,8.800801277160645,-0.26560330390930176
1707663738326733600,17.038733642578126,4.338187217712402,8.851051330566406,-0.21296121180057526
1707663738343580700,17.05558056640625,3.7639100551605225,8.599804878234863,-0.5048855543136597
1707663738360427800,17.072427734375,4.60857629776001,8.551948547363281,0.05503492057323456
1707663738377275000,17.08927490234375,4.488935470581055,8.719446182250977,0.31824541091918945
1707663738394122200,17.106122314453124,3.713660717010498,8.470592498779297,0.16271193325519562
1707663738410969300,17.12296923828125,4.304687976837158,8.367700576782227,-0.019142581149935722
1707663738427816400,17.13981640625,4.7401814460754395,8.47298526763916,-0.04546362906694412
1707663738444663600,17.15666357421875,4.022335052490234,8.688339233398438,-0.08614161610603333
1707663738461511000,17.173510986328125,4.091726779937744,8.652446746826172,0.6293123364448547
1707663738478358000,17.19035791015625,4.60139799118042,8.477770805358887,0.5910272002220154
1707663738495205000,17.207205078125,3.8811583518981934,8.539983749389648,0.1459621787071228
1707663738512052200,17.22405224609375,3.775874137878418,8.559126853942871,0.3278166949748993
1707663738528899600,17.240899658203126,4.503292083740234,8.824729919433594,-0.0023928226437419653
1707663738545746700,17.25774658203125,4.5583271980285645,8.508877754211426,0.007178467698395252
1707663738562593800,17.27459375,3.7806596755981445,8.597412109375,0.5359922647476196
1707663738579441000,17.29144091796875,4.194618225097656,8.46341323852539,0.2560320198535919
1707663738596288500,17.30828857421875,4.716253280639648,8.642875671386719,-0.13639089465141296
1707663738613135400,17.32513525390625,4.249652862548828,8.559126853942871,-0.05024927482008934
1707663738629982500,17.341982421875,4.371686935424805,8.764909744262695,0.09810572862625122
1707663738646829600,17.35882958984375,4.687539577484131,8.595019340515137,0.03349951654672623
1707663738663677000,17.375677001953125,4.235296249389648,8.516056060791016,0.062213387340307236
1707663738680524000,17.39252392578125,4.35254430770874,8.733802795410156,-0.1459621787071228
1707663738697371100,17.40937109375,4.780859470367432,8.846264839172363,-0.6484549641609192
1707663738714218200,17.42621826171875,4.252045631408691,8.73619556427002,0.05742774158716202
1707663738731065600,17.443065673828126,4.024727821350098,8.360522270202637,0.05024927482008934
1707663738747912700,17.45991259765625,4.40757942199707,8.72901725769043,-0.3756731450557709
1707663738764759800,17.476759765625,4.376472473144531,8.673981666564941,-0.16271193325519562
1707663738781607200,17.493607177734376,4.34536600112915,8.398807525634766,-0.27756741642951965
1707663738798454300,17.510454345703124,4.431507587432861,8.779266357421875,-0.3684946894645691
1707663738815301400,17.52730126953125,4.029513359069824,8.535198211669922,-0.1459621787071228
1707663738832148700,17.544148681640625,4.00319242477417,8.592626571655273,0.0023928226437419653
1707663738848995800,17.560995849609377,4.675575256347656,8.74337387084961,-0.16031911969184875
1707663738865843000,17.577843017578125,4.297509670257568,8.791230201721191,-0.2679961323738098
1707663738882690300,17.594690185546874,4.113262176513672,8.58784008026123,-0.30628129839897156
1707663738899537400,17.611537353515626,4.304687976837158,8.81515884399414,0.01196411345154047
1707663738916384500,17.628384521484374,4.168296813964844,8.647661209106445,-0.729810893535614
1707663738933231600,17.645231689453126,4.460221290588379,8.578269004821777,0.11006984114646912
1707663738950079000,17.662078857421875,4.261617183685303,9.040083885192871,0.2560320198535919
1707663738966926000,17.678926025390624,4.319045066833496,8.901300430297852,-0.5862415432929993
1707663738983773200,17.695773193359376,4.2831525802612305,8.681160926818848,-0.2273181527853012
1707663739000620500,17.71262060546875,4.2831525802612305,8.678768157958984,-0.016749758273363113
1707663739017467600,17.729467529296876,4.256831645965576,8.740981101989746,0.1818545162677765
1707663739034314800,17.746314697265625,4.328616142272949,8.49452018737793,-0.19142581522464752
1707663739051162000,17.763162109375,4.756931304931641,8.566305160522461,0.064606212079525
1707663739068009200,17.78000927734375,4.130012035369873,8.791230201721191,-0.12921242415905
1707663739084856300,17.796856201171874,4.098905086517334,8.403593063354492,-0.2919243574142456
1707663739101703400,17.813703369140626,4.6540398597717285,8.520841598510742,-0.14356936514377594
1707663739118550800,17.83055078125,4.47697114944458,8.647661209106445,0.18424734473228455
1707663739135398000,17.84739794921875,4.043870449066162,8.707481384277344,0.5647061467170715
1707663739152245200,17.864245361328123,4.677968502044678,8.358129501342773,-0.20578274130821228
1707663739169092400,17.88109228515625,4.536791801452637,8.286344528198242,-0.05742774158716202
1707663739185939500,17.897939453125,3.5341989994049072,8.659625053405762,0.23210379481315613
1707663739202786600,17.91478662109375,4.634897232055664,8.585447311401367,0.08614161610603333
1707663739219634000,17.931634033203125,4.924428939819336,8.590232849121094,-0.1866401731967926
1707663739236481000,17.94848095703125,3.9314076900482178,8.635697364807129,-0.09571290761232376
1707663739253328400,17.965328369140625,3.7112679481506348,8.35573673248291,0.18424734473228455
1707663739270175500,17.982175537109374,4.534399032592773,8.664410591125488,-0.5096712112426758
1707663739287022600,17.999022705078126,4.577469825744629,8.879764556884766,-0.24646073579788208
1707663739303869700,18.01586962890625,4.060619831085205,8.901300430297852,-0.28235307335853577
1707663739320717000,18.032717041015626,4.1970109939575195,8.731410026550293,0.064606212079525
1707663739337564200,18.049564208984375,4.462614059448242,8.606983184814453,-0.064606212079525
1707663739354411300,18.066411376953123,3.9601213932037354,8.930013656616211,-0.24167509377002716
1707663739371258600,18.083258544921875,4.575077056884766,8.650053977966309,-0.4618147611618042
1707663739388105700,18.100105712890624,4.673182487487793,8.583054542541504,0.06939185410737991
1707663739404952800,18.116952880859376,4.053441524505615,8.523234367370605,0.15553347766399384
1707663739421800200,18.13380029296875,4.639683246612549,8.73619556427002,0.2273181527853012
1707663739438647300,18.150647216796877,4.900500774383545,8.786444664001465,-0.18424734473228455
1707663739455494400,18.167494384765625,4.323830604553223,8.547162055969238,-0.41874396800994873
1707663739472341800,18.184341796875,4.063013076782227,8.566305160522461,-0.3852444589138031
1707663739489188900,18.20118896484375,4.445864677429199,8.578269004821777,-0.05024927482008934
1707663739506036200,18.2180361328125,4.591826438903809,8.827122688293457,0.4498506486415863
1707663739522883300,18.23488330078125,4.218546390533447,8.781659126281738,0.13878370821475983
1707663739539730400,18.25173046875,4.046263217926025,8.58784008026123,-0.32303106784820557
1707663739556577800,18.268577880859375,4.115654945373535,8.877371788024902,-0.4450650215148926
1707663739573425000,18.2854248046875,4.646861553192139,8.781659126281738,-0.4570291340351105
1707663739590272000,18.30227197265625,4.204189300537109,8.851051330566406,0.1698904037475586
1707663739607119400,18.319119384765624,4.00319242477417,8.788837432861328,0.37088751792907715
1707663739623966500,18.335966552734376,4.074976921081543,8.879764556884766,-0.3445664644241333
1707663739640813600,18.3528134765625,4.218546390533447,8.870193481445312,-0.031106693670153618
1707663739657661000,18.369660888671874,4.409972190856934,8.630910873413086,-0.29431718587875366
1707663739674508000,18.386508056640626,3.84765887260437,8.726624488830566,-0.5335994362831116
1707663739691355100,18.403355224609374,4.46979284286499,8.394021987915039,0.064606212079525
1707663739708202500,18.420202392578126,4.371686935424805,8.793622970581055,0.3158525824546814
1707663739725049600,18.437049560546875,4.1491546630859375,8.49452018737793,0.07417750358581543
1707663739741897000,18.45389697265625,4.07258415222168,8.523234367370605,-0.08614161610603333
1707663739758744000,18.470744140625,4.40757942199707,8.360522270202637,-0.29431718587875366
1707663739775591200,18.487591064453124,4.527220249176025,8.520841598510742,-0.07417750358581543
1707663739792438500,18.5044384765625,4.019941806793213,8.621339797973633,0.45942193269729614
1707663739809285600,18.52128564453125,4.615755081176758,8.34855842590332,0.17228323221206665
1707663739826132700,18.5381328125,4.285545349121094,8.81515884399414,0.2153540402650833
1707663739842980000,18.55497998046875,4.249652862548828,8.511270523071289,-0.5096712112426758
1707663739859827200,18.5718271484375,4.579862594604492,8.547162055969238,-0.1339980661869049
1707663739876674600,18.588674560546874,4.163511276245117,8.96112060546875,-0.14356936514377594
1707663739893521700,18.605521728515626,4.264009952545166,8.657232284545898,0.4977070987224579
1707663739910368800,18.62236865234375,4.5391845703125,8.817551612854004,0.3445664644241333
1707663739927216000,18.639216064453127,4.333401679992676,8.549555778503418,-0.5479564070701599
1707663739944063200,18.656063232421875,4.034298896789551,8.81515884399414,-0.6197410821914673
1707663739960910300,18.672910400390624,4.417150497436523,8.731410026550293,-0.3517449200153351
1707663739977757700,18.6897578125,4.491328239440918,8.635697364807129,-0.23688943684101105
1707663739994604800,18.706604736328124,3.82373046875,8.781659126281738,0.13878370821475983
1707663740011452200,18.7234521484375,4.486542224884033,8.695517539978027,-0.16271193325519562
1707663740028299300,18.74029931640625,4.584648132324219,8.635697364807129,-0.7728816866874695
1707663740045146400,18.757146484375,3.9146578311920166,8.475378036499023,-0.48095735907554626
1707663740061993700,18.77399365234375,4.297509670257568,8.37009334564209,-0.2153540402650833
1707663740078840800,18.7908408203125,4.8191447257995605,8.537590980529785,-0.15314064919948578
1707663740095688000,18.80768798828125,4.268795490264893,8.599804878234863,0.02632104977965355
1707663740112535300,18.824535400390626,4.06540584564209,8.398807525634766,0.004785645287483931
1707663740129382400,18.84138232421875,4.232903480529785,8.425128936767578,-0.34695929288864136
1707663740146229800,18.858229736328123,4.486542224884033,8.554341316223145,-0.40677985548973083
1707663740163076900,18.875076904296876,4.304687976837158,8.595019340515137,-0.1339980661869049
1707663740179924000,18.891924072265624,4.094119548797607,8.499305725097656,0.5599204897880554
1707663740196771300,18.908771240234376,4.522434711456299,8.630910873413086,0.16510476171970367
1707663740213618400,18.925618408203125,4.316651821136475,8.645268440246582,-0.031106693670153618
1707663740230465800,18.9424658203125,4.132404804229736,8.592626571655273,-0.05024927482008934
1707663740247313000,18.95931298828125,4.393222332000732,8.590232849121094,-0.031106693670153618
1707663740264160000,18.976159912109374,4.6995038986206055,8.561519622802734,-0.1052841991186142
1707663740281007400,18.99300732421875,4.185046672821045,8.910871505737305,0.24406790733337402
1707663740297854500,19.0098544921875,4.058227062225342,8.896514892578125,0.31106695532798767
1707663740314701800,19.026701904296875,4.78803825378418,8.568697929382324,-0.12203395366668701
1707663740331549000,19.043548828125,4.67078971862793,8.650053977966309,-0.5958128571510315
1707663740348396000,19.06039599609375,4.029513359069824,8.681160926818848,0.19381862878799438
1707663740365243400,19.077243408203124,4.515256404876709,8.606983184814453,0.3038884699344635
1707663740382090500,19.094090576171876,4.429114818572998,8.879764556884766,0.33020952343940735
1707663740398937900,19.110937744140625,4.137190341949463,8.62612533569336,0.02392822690308094
1707663740415785000,19.127784912109377,4.5391845703125,8.358129501342773,-0.4091726839542389
1707663740432632000,19.144632080078125,4.2831525802612305,8.693124771118164,-0.26560330390930176
1707663740449479400,19.1614794921875,4.369294166564941,8.62612533569336,-0.25363919138908386
1707663740466326500,19.178326416015626,4.412364959716797,8.82951545715332,-0.09571290761232376
1707663740483173600,19.195173583984374,4.3070807456970215,8.817551612854004,0.1698904037475586
1707663740500021000,19.21202099609375,4.560719966888428,8.575876235961914,-0.33020952343940735
1707663740516868000,19.2288681640625,4.139583110809326,8.733802795410156,-0.24167509377002716
1707663740533715500,19.245715576171875,4.455435752868652,8.812766075134277,-0.4426721930503845
1707663740550562600,19.2625625,4.704289436340332,8.767302513122559,-0.16749759018421173
1707663740567409700,19.27940966796875,4.2281174659729,8.6907320022583,-0.1986042857170105
1707663740584257000,19.296257080078124,4.417150497436523,8.566305160522461,-0.1052841991186142
1707663740601104100,19.313104248046876,4.319045066833496,8.583054542541504,-0.5168496966362
1707663740617951500,19.329951416015625,4.240081787109375,8.659625053405762,-0.2632105052471161
1707663740634798600,19.346798583984373,4.47697114944458,8.623732566833496,-0.22971096634864807
1707663740651645700,19.363645751953126,4.4243292808532715,8.305487632751465,-0.11485548317432404
1707663740668493000,19.3804931640625,3.8883368968963623,8.525627136230469,0.3397808074951172
1707663740685340200,19.397340087890626,4.273581027984619,8.595019340515137,-0.2991028428077698
1707663740702187500,19.4141875,4.591826438903809,8.671588897705078,-0.42831525206565857
1707663740719034600,19.43103466796875,3.9625144004821777,8.831908226013184,-0.08374879509210587
1707663740735881700,19.4478818359375,4.043870449066162,8.69791030883789,-0.3206382393836975
1707663740752729000,19.46472900390625,4.1419758796691895,8.71226692199707,0.062213387340307236
1707663740769576200,19.481576171875,4.2592244148254395,9.037691116333008,0.4139583110809326
1707663740786423300,19.49842333984375,4.175475597381592,9.032905578613281,0.39960137009620667
1707663740803270700,19.515270751953125,4.120440483093262,8.585447311401367,-0.641276478767395
1707663740820117800,19.53211767578125,4.297509670257568,8.578269004821777,0.2512463629245758
1707663740836965000,19.548965087890625,3.893122434616089,8.884550094604492,0.1866401731967926
1707663740853812200,19.565812255859374,4.185046672821045,8.58784008026123,0.28235307335853577
1707663740870659600,19.58265966796875,4.5391845703125,8.669196128845215,0.23449662327766418
1707663740887506700,19.599506591796874,4.651647090911865,8.616554260253906,-0.2105683982372284
1707663740904353800,19.616353759765627,3.9912281036376953,8.563912391662598,-0.16749759018421173
1707663740921201200,19.633201171875,4.086941242218018,8.338987350463867,-0.10049854964017868
1707663740938048300,19.65004833984375,4.666004180908203,8.429914474487305,-0.20099709928035736
1707663740954895600,19.6668955078125,4.618147850036621,8.561519622802734,-0.04546362906694412
1707663740971742700,19.68374267578125,4.163511276245117,8.204988479614258,-0.09810572862625122
1707663740988589800,19.70058984375,4.35254430770874,8.525627136230469,-0.14835500717163086
1707663741005437200,19.717437255859377,4.534399032592773,8.520841598510742,-0.01196411345154047
1707663741022284300,19.7342841796875,4.180261135101318,8.549555778503418,0.01196411345154047
1707663741039131400,19.75113134765625,4.388436794281006,8.834300994873047,0.24885354936122894
1707663741055978800,19.767978759765626,4.749752998352051,8.788837432861328,-0.1459621787071228
1707663741072825900,19.784825927734374,4.201796531677246,8.664410591125488,-0.08853443711996078
1707663741089673200,19.801673095703126,3.8333017826080322,8.599804878234863,-0.5575276613235474
1707663741106520300,19.818520263671875,4.551148891448975,8.930013656616211,-0.2632105052471161
1707663741123367400,19.835367431640623,4.4650068283081055,9.164510726928711,0.11006984114646912
1707663741140214800,19.85221484375,4.063013076782227,8.865407943725586,0.6364908218383789
1707663741157062000,19.869061767578124,4.091726779937744,9.028120040893555,-0.10767702013254166
1707663741173909200,19.8859091796875,4.505684852600098,8.937192916870117,-0.36610186100006104
1707663741190756400,19.90275634765625,4.390829563140869,8.810373306274414,-0.40677985548973083
1707663741207603500,19.919603515625,4.419543266296387,8.855836868286133,0.1052841991186142
1707663741224450800,19.936450927734374,4.541577339172363,8.583054542541504,0.3397808074951172
1707663741241298000,19.9532978515625,4.084548473358154,8.382058143615723,0.07417750358581543
1707663741258145300,19.970145263671874,4.338187217712402,8.422736167907715,-0.08853443711996078
1707663741274992400,19.986992431640626,4.498506546020508,8.520841598510742,-0.16510476171970367
1707663741291839500,20.003839599609375,4.570291042327881,8.365307807922363,0.02871387079358101
1707663741308686800,20.020686767578123,4.187439441680908,8.243273735046387,0.08853443711996078
1707663741325534000,20.037533935546875,3.996013879776001,8.207381248474121,0.08853443711996078
1707663741342381000,20.054381103515624,4.2281174659729,8.477770805358887,0.397208571434021
1707663741359228400,20.071228515625,4.60139799118042,8.590232849121094,0.24646073579788208
1707663741376075500,20.088075439453124,4.34536600112915,8.391629219055176,-0.15553347766399384
1707663741392923000,20.1049228515625,4.06540584564209,8.374878883361816,-0.15074782073497772
1707663741409770000,20.12177001953125,4.292723655700684,8.561519622802734,0.0023928226437419653
1707663741426617300,20.138617431640625,4.328616142272949,8.6907320022583,0.15074782073497772
1707663741443464400,20.15546435546875,4.412364959716797,8.779266357421875,-0.031106693670153618
1707663741460311600,20.1723115234375,4.555934429168701,8.496912956237793,-0.11485548317432404
1707663741477159000,20.189158935546875,4.271188259124756,8.635697364807129,-0.05024927482008934
1707663741494006000,20.206006103515627,3.9792640209198,8.640482902526855,-0.5694918036460876
1707663741510853400,20.222853271484375,4.673182487487793,8.748159408569336,-0.550349235534668
1707663741527700500,20.239700439453124,4.455435752868652,9.166903495788574,0
1707663741544547600,20.256547607421876,4.2831525802612305,8.994620323181152,-0.10049854964017868
1707663741561395000,20.27339501953125,3.94097900390625,9.133403778076172,0.02392822690308094
1707663741578242000,20.290241943359376,3.792623996734619,9.037691116333008,-0.4331009089946747
1707663741595089200,20.307089111328125,4.4410786628723145,9.095118522644043,-0.43549370765686035
1707663741611936500,20.3239365234375,4.098905086517334,9.147761344909668,-0.4450650215148926
1707663741628783600,20.34078369140625,4.500899314880371,8.477770805358887,-0.2105683982372284
1707663741645631000,20.357630859375,4.261617183685303,8.774480819702148,0.13878370821475983
1707663741662478000,20.37447802734375,4.383651256561279,8.774480819702148,-0.24167509377002716
1707663741679325200,20.3913251953125,4.433900356292725,8.475378036499023,-0.004785645287483931
1707663741696172500,20.408172607421875,4.433900356292725,8.13081169128418,0.01196411345154047
1707663741713019600,20.42501953125,4.438685894012451,8.274380683898926,0.28235307335853577
1707663741729866800,20.44186669921875,4.381258487701416,8.61894702911377,-0.1459621787071228
1707663741746714000,20.458714111328124,4.577469825744629,8.303094863891602,-0.0023928226437419653
1707663741763561200,20.475561279296876,4.223331928253174,8.329415321350098,0.20338992774486542
1707663741780408600,20.49240869140625,4.40757942199707,8.595019340515137,0.035892341285943985
1707663741797255700,20.509255615234373,4.543970108032227,8.595019340515137,-0.25363919138908386
1707663741814102800,20.526102783203125,4.53200626373291,8.755337715148926,0.08135596662759781
1707663741830950100,20.5429501953125,4.359723091125488,8.647661209106445,0.064606212079525
1707663741847797200,20.55979736328125,4.252045631408691,8.616554260253906,-0.39481574296951294
1707663741864644400,20.576644287109374,4.433900356292725,8.693124771118164,-0.6795616149902344
1707663741881491700,20.59349169921875,4.644468784332275,8.803194046020508,0.08853443711996078
1707663741898338800,20.6103388671875,4.433900356292725,8.898907661437988,-0.0933200865983963
1707663741915186200,20.627186279296875,4.211368083953857,8.8438720703125,-0.30149564146995544
1707663741932033300,20.644033203125,4.036691665649414,8.824729919433594,-0.5551348328590393
1707663741948880400,20.66088037109375,4.488935470581055,8.82951545715332,-0.33020952343940735
1707663741965727700,20.677727783203125,4.431507587432861,8.81515884399414,-0.6173482537269592
1707663741982574800,20.694574951171877,4.201796531677246,8.623732566833496,-0.28235307335853577
1707663741999422000,20.711421875,4.366901397705078,8.800801277160645,0.35413774847984314
1707663742016269300,20.728269287109374,4.039084434509277,8.719446182250977,0.11006984114646912
1707663742033116400,20.745116455078126,4.218546390533447,8.511270523071289,-0.4019941985607147
1707663742049963500,20.761963623046874,4.54636287689209,8.700303077697754,-0.4259224236011505
1707663742066811000,20.778810791015626,4.180261135101318,8.717052459716797,-0.2153540402650833
1707663742083658000,20.795657958984375,4.252045631408691,8.343772888183594,0.02153540402650833
1707663742100505300,20.81250537109375,4.357329845428467,8.358129501342773,0.32542386651039124
1707663742117352400,20.8293525390625,4.395615100860596,8.539983749389648,0.5479564070701599
1707663742134199600,20.846199462890624,4.1419758796691895,8.489734649658203,-0.17228323221206665
1707663742151047000,20.863046875,4.553541660308838,8.334200859069824,-0.1459621787071228
1707663742167894000,20.87989404296875,4.639683246612549,8.312665939331055,-0.11246266216039658
1707663742184741000,20.8967412109375,3.783052682876587,8.662017822265625,0.2632105052471161
1707663742201588500,20.91358837890625,4.240081787109375,8.358129501342773,0.15074782073497772
1707663742218435600,20.930435546875,4.697110652923584,8.831908226013184,0.47617170214653015
1707663742235282700,20.94728271484375,4.273581027984619,8.295916557312012,-0.13160525262355804
1707663742252130000,20.964130126953126,3.8428730964660645,8.776873588562012,-0.1746760457754135
1707663742268977200,20.98097705078125,4.835894584655762,8.37009334564209,-0.2560320198535919
1707663742285824500,20.997824462890627,4.278367042541504,8.764909744262695,-0.08853443711996078
1707663742302671600,21.014671630859375,3.955335855484009,8.635697364807129,0.4378865361213684
1707663742319518700,21.031518798828124,4.8502516746521,8.358129501342773,0.3206382393836975
1707663742336366000,21.048365966796876,4.524827480316162,8.762516975402832,0.16031911969184875
1707663742353213200,21.065213134765624,4.094119548797607,8.638090133666992,-0.37088751792907715
1707663742370060300,21.082060302734376,4.34536600112915,8.484949111938477,-0.3732803463935852
1707663742386907600,21.09890771484375,4.613361835479736,8.858229637145996,-0.19142581522464752
1707663742403754800,21.115754638671874,4.488935470581055,8.81515884399414,0.6436693072319031
1707663742420601900,21.132601806640626,3.8907296657562256,8.872586250305176,0.004785645287483931
1707663742437449200,21.14944921875,4.6372904777526855,8.621339797973633,-0.5024927258491516
1707663742454296300,21.16629638671875,4.4961137771606445,8.70508861541748,-0.5096712112426758
1707663742471143400,21.183143310546875,3.9840497970581055,8.652446746826172,-0.2991028428077698
1707663742487990800,21.19999072265625,4.328616142272949,8.63330364227295,0.07657032459974289
1707663742504838000,21.216837890625,4.72582483291626,8.94676399230957,-0.09092725813388824
1707663742521685000,21.23368505859375,4.264009952545166,8.925228118896484,0.31824541091918945
1707663742538532400,21.250532470703124,4.491328239440918,8.499305725097656,-0.3278166949748993
1707663742555379500,21.26737939453125,4.508078098297119,8.547162055969238,-0.7250252366065979
1707663742572226600,21.2842265625,4.42193603515625,8.252845764160156,-0.33738797903060913
1707663742589074000,21.301073974609373,4.235296249389648,8.609375953674316,0.031106693670153618
1707663742605921000,21.317921142578125,4.632504463195801,8.37966537475586,0.062213387340307236
1707663742622768000,21.33476806640625,4.642076015472412,8.394021987915039,0.1052841991186142
1707663742639615500,21.351615478515626,3.864408493041992,8.650053977966309,-0.38285163044929504
1707663742656462600,21.368462646484375,4.555934429168701,8.202595710754395,-0.1986042857170105
1707663742673309700,21.385309814453127,4.524827480316162,8.516056060791016,-0.24167509377002716
1707663742690157000,21.402156982421875,4.051048755645752,8.47298526763916,-0.12203395366668701
1707663742707004200,21.419004150390624,4.500899314880371,8.214560508728027,0.17946170270442963
1707663742723851300,21.435851318359376,4.438685894012451,8.525627136230469,0.10767702013254166
1707663742740698600,21.45269873046875,4.1659040451049805,8.3629150390625,0.22013968229293823
1707663742757545700,21.469545654296876,4.2281174659729,8.47298526763916,0.05024927482008934
1707663742774392800,21.486392822265625,4.852644443511963,8.286344528198242,-0.4426721930503845
1707663742791240200,21.503240234375,4.845465660095215,8.427521705627441,0.1459621787071228
1707663742808087300,21.52008740234375,3.627519130706787,8.413164138793945,0.37806597352027893
1707663742824934400,21.536934326171874,4.412364959716797,8.271987915039062,-0.01196411345154047
1707663742841781800,21.55378173828125,5.197210788726807,8.800801277160645,-0.004785645287483931
1707663742858628900,21.57062890625,4.460221290588379,8.695517539978027,-0.275174617767334
